rt,stimulus,response,trial_type,trial_index,plugin_version,time_elapsed,subject_id,study_id,session_id,question_type,source_file
3056,"
        <div style=""font-size: 16px; text-align: center; margin-top: 25px; margin-right: 100px; margin-left: 100px; margin-bottom: 25px;"">
            <img src=""./image/SUSig_2color_Stree_Left.png"" alt=""Stanford Logo"" style=""max-width: 500px; margin-bottom: 20px;"">
            <h3>DESCRIPTION</h3>
            <p>You are invited to participate in a research study. It’s general purpose is to understand what associations people hold with Autism Spectrum Condition. In this study, we will ask you a four questions about your broad impressions of Autism. Following this, you will be asked to complete an optional demographic survey. Participation in this research is voluntary, and you are free to withdraw your consent at any time.</p>
            <h3>TIME INVOLVEMENT</h3> 
            <p>Your participation will take approximately 4 minutes.</p>
            <h3>PAYMENT</h3> 
            <p>You will be paid at the posted rate.</p>
            <h3>PRIVACY AND CONFIDENTIALITY</h3> 
            <p>The risks associated with this study are minimal. This judgment is based on a large body of experience with the same or similar procedures with people of similar ages, sex, origins, etc. Study data will be stored securely, in compliance with Stanford University standards, minimizing the risk of confidentiality breach. Your individual privacy will be maintained during the research and in all published and written data resulting from the study.</p>
            <h3>CONTACT INFORMATION</h3>
            <p>If you have any questions, concerns or complaints about this research study, its procedures, risks and benefits, you should contact the Protocol Director, Grace Brown, at (616) 498-8188. If you are not satisfied with how this study is being conducted, or if you have any concerns, complaints, or general questions about the research or your rights as a participant, please contact the Stanford Institutional Review Board (IRB) to speak to someone independent of the research team at (650) 723-2480 or toll free at 1-866-680-2906. You can also write to the Stanford IRB, Stanford University, 1705 El Camino Real, Palo Alto, CA 94306 USA.</p> 
            <h3>WAIVER OF DOCUMENTATION</h3>
            <p>If you agree to participate in this research, please click the 'Continue' button.</p>
        </div>",0,html-button-response,0,2.1.0,3063,674f97fef70c3dd15d138c3e,691666c81a5eeee631c26019,6916907e6ae822f72a466326,,0ehz4rm3z0.csv
4107,"<p>Autism has received increased public attention in recent years, leading to a wide range of discussions about what it means to be autistic. To better understand how people in the United States think and talk about autism, we will ask you four short questions about your general impressions of the condition. Following this, you have the opportunity to complete an optional demographic survey. Your responses will help us learn more about how autism is perceived and discussed in everyday life.<br><br>If you understand the instructions and are ready to begin, click ‘Continue’.</p>",0,html-button-response,1,2.1.0,7172,674f97fef70c3dd15d138c3e,691666c81a5eeee631c26019,6916907e6ae822f72a466326,,0ehz4rm3z0.csv
32199,,"{""Person"":""Misunderstood, lovely, sharp, different, friendly""}",survey-text,2,2.1.0,39374,674f97fef70c3dd15d138c3e,691666c81a5eeee631c26019,6916907e6ae822f72a466326,person,0ehz4rm3z0.csv
35177,,"{""Behavior"":""overstimulated, truthful, reactive, sweet, friendly""}",survey-text,3,2.1.0,74552,674f97fef70c3dd15d138c3e,691666c81a5eeee631c26019,6916907e6ae822f72a466326,behavior,0ehz4rm3z0.csv
53989,,"{""Sound"":""inquisitive, innocent, trusting, friendly, joyful""}",survey-text,4,2.1.0,128543,674f97fef70c3dd15d138c3e,691666c81a5eeee631c26019,6916907e6ae822f72a466326,sound,0ehz4rm3z0.csv
4590,,"{""Know"":""Yes""}",survey-text,5,2.1.0,133135,674f97fef70c3dd15d138c3e,691666c81a5eeee631c26019,6916907e6ae822f72a466326,know,0ehz4rm3z0.csv
4349,"<p>Thank you for providing your impressions of autism. You will now be directed to an optional demographic survey. Please answer the survey questions if you feel comfortable doing so. After seeing the survey, you will be able to end the study.</p>",0,html-button-response,6,2.1.0,137485,674f97fef70c3dd15d138c3e,691666c81a5eeee631c26019,6916907e6ae822f72a466326,,0ehz4rm3z0.csv
22564,,"{""understood"":true,""age"":35,""gender"":""Male"",""ethnicity"":""Hispanic/white"",""enjoy"":""Better than average study"",""payment"":""The payment was fair"",""question1"":null,""comments"":null}",survey,7,3.0.0,160097,674f97fef70c3dd15d138c3e,691666c81a5eeee631c26019,6916907e6ae822f72a466326,,0ehz4rm3z0.csv
2324,"
        <div style=""font-size: 16px; text-align: center; margin-top: 25px; margin-right: 100px; margin-left: 100px; margin-bottom: 25px;"">
            <img src=""./image/SUSig_2color_Stree_Left.png"" alt=""Stanford Logo"" style=""max-width: 500px; margin-bottom: 20px;"">
            <h3>DESCRIPTION</h3>
            <p>You are invited to participate in a research study. It’s general purpose is to understand what associations people hold with Autism Spectrum Condition. In this study, we will ask you a four questions about your broad impressions of Autism. Following this, you will be asked to complete an optional demographic survey. Participation in this research is voluntary, and you are free to withdraw your consent at any time.</p>
            <h3>TIME INVOLVEMENT</h3> 
            <p>Your participation will take approximately 4 minutes.</p>
            <h3>PAYMENT</h3> 
            <p>You will be paid at the posted rate.</p>
            <h3>PRIVACY AND CONFIDENTIALITY</h3> 
            <p>The risks associated with this study are minimal. This judgment is based on a large body of experience with the same or similar procedures with people of similar ages, sex, origins, etc. Study data will be stored securely, in compliance with Stanford University standards, minimizing the risk of confidentiality breach. Your individual privacy will be maintained during the research and in all published and written data resulting from the study.</p>
            <h3>CONTACT INFORMATION</h3>
            <p>If you have any questions, concerns or complaints about this research study, its procedures, risks and benefits, you should contact the Protocol Director, Grace Brown, at (616) 498-8188. If you are not satisfied with how this study is being conducted, or if you have any concerns, complaints, or general questions about the research or your rights as a participant, please contact the Stanford Institutional Review Board (IRB) to speak to someone independent of the research team at (650) 723-2480 or toll free at 1-866-680-2906. You can also write to the Stanford IRB, Stanford University, 1705 El Camino Real, Palo Alto, CA 94306 USA.</p> 
            <h3>WAIVER OF DOCUMENTATION</h3>
            <p>If you agree to participate in this research, please click the 'Continue' button.</p>
        </div>",0,html-button-response,0,2.1.0,2348,67ab7ed4c126306d2899115a,691666c81a5eeee631c26019,69166cd91c30fb1fced9c16c,,161u6117en.csv
8044,"<p>Autism has received increased public attention in recent years, leading to a wide range of discussions about what it means to be autistic. To better understand how people in the United States think and talk about autism, we will ask you four short questions about your general impressions of the condition. Following this, you have the opportunity to complete an optional demographic survey. Your responses will help us learn more about how autism is perceived and discussed in everyday life.<br><br>If you understand the instructions and are ready to begin, click ‘Continue’.</p>",0,html-button-response,1,2.1.0,10395,67ab7ed4c126306d2899115a,691666c81a5eeee631c26019,69166cd91c30fb1fced9c16c,,161u6117en.csv
65960,,"{""Person"":""Anti-social, introspective, sensitive, self-focused, talented""}",survey-text,2,2.1.0,76359,67ab7ed4c126306d2899115a,691666c81a5eeee631c26019,69166cd91c30fb1fced9c16c,person,161u6117en.csv
66620,,"{""Behavior"":""quiet, touchy, shy, irritable, easily agitated""}",survey-text,3,2.1.0,142981,67ab7ed4c126306d2899115a,691666c81a5eeee631c26019,69166cd91c30fb1fced9c16c,behavior,161u6117en.csv
67783,,"{""Sound"":""quiet, non-verbal sometimes, loud sometimes, sounds like anyone else, long vowels""}",survey-text,4,2.1.0,210767,67ab7ed4c126306d2899115a,691666c81a5eeee631c26019,69166cd91c30fb1fced9c16c,sound,161u6117en.csv
3757,,"{""Know"":""yes""}",survey-text,5,2.1.0,214530,67ab7ed4c126306d2899115a,691666c81a5eeee631c26019,69166cd91c30fb1fced9c16c,know,161u6117en.csv
2129,"<p>Thank you for providing your impressions of autism. You will now be directed to an optional demographic survey. Please answer the survey questions if you feel comfortable doing so. After seeing the survey, you will be able to end the study.</p>",0,html-button-response,6,2.1.0,216662,67ab7ed4c126306d2899115a,691666c81a5eeee631c26019,69166cd91c30fb1fced9c16c,,161u6117en.csv
24877,,"{""understood"":true,""age"":56,""gender"":""Female"",""ethnicity"":""Caucasian "",""enjoy"":""Average study"",""payment"":""The payment was fair"",""comments"":""No"",""question1"":null}",survey,7,3.0.0,241689,67ab7ed4c126306d2899115a,691666c81a5eeee631c26019,69166cd91c30fb1fced9c16c,,161u6117en.csv
124157,"
        <div style=""font-size: 16px; text-align: center; margin-top: 25px; margin-right: 100px; margin-left: 100px; margin-bottom: 25px;"">
            <img src=""./image/SUSig_2color_Stree_Left.png"" alt=""Stanford Logo"" style=""max-width: 500px; margin-bottom: 20px;"">
            <h3>DESCRIPTION</h3>
            <p>You are invited to participate in a research study. It’s general purpose is to understand what associations people hold with Autism Spectrum Condition. In this study, we will ask you a four questions about your broad impressions of Autism. Following this, you will be asked to complete an optional demographic survey. Participation in this research is voluntary, and you are free to withdraw your consent at any time.</p>
            <h3>TIME INVOLVEMENT</h3> 
            <p>Your participation will take approximately 4 minutes.</p>
            <h3>PAYMENT</h3> 
            <p>You will be paid at the posted rate.</p>
            <h3>PRIVACY AND CONFIDENTIALITY</h3> 
            <p>The risks associated with this study are minimal. This judgment is based on a large body of experience with the same or similar procedures with people of similar ages, sex, origins, etc. Study data will be stored securely, in compliance with Stanford University standards, minimizing the risk of confidentiality breach. Your individual privacy will be maintained during the research and in all published and written data resulting from the study.</p>
            <h3>CONTACT INFORMATION</h3>
            <p>If you have any questions, concerns or complaints about this research study, its procedures, risks and benefits, you should contact the Protocol Director, Grace Brown, at (616) 498-8188. If you are not satisfied with how this study is being conducted, or if you have any concerns, complaints, or general questions about the research or your rights as a participant, please contact the Stanford Institutional Review Board (IRB) to speak to someone independent of the research team at (650) 723-2480 or toll free at 1-866-680-2906. You can also write to the Stanford IRB, Stanford University, 1705 El Camino Real, Palo Alto, CA 94306 USA.</p> 
            <h3>WAIVER OF DOCUMENTATION</h3>
            <p>If you agree to participate in this research, please click the 'Continue' button.</p>
        </div>",0,html-button-response,0,2.1.0,124164,583b397f54686200010f1d20,691666c81a5eeee631c26019,691670cf124598dcbf24d210,,1k1xhx2t1j.csv
246278,"<p>Autism has received increased public attention in recent years, leading to a wide range of discussions about what it means to be autistic. To better understand how people in the United States think and talk about autism, we will ask you four short questions about your general impressions of the condition. Following this, you have the opportunity to complete an optional demographic survey. Your responses will help us learn more about how autism is perceived and discussed in everyday life.<br><br>If you understand the instructions and are ready to begin, click ‘Continue’.</p>",0,html-button-response,1,2.1.0,370444,583b397f54686200010f1d20,691666c81a5eeee631c26019,691670cf124598dcbf24d210,,1k1xhx2t1j.csv
421591,,"{""Person"":""Supportive, detail-focused, honest, sensory-sensitive, thoughtful, pattern-oriented, unique, perceptive, loyal, intuitive""}",survey-text,2,2.1.0,792038,583b397f54686200010f1d20,691666c81a5eeee631c26019,691670cf124598dcbf24d210,person,1k1xhx2t1j.csv
35375,,"{""Behavior"":""Focused, literal, routine-oriented, direct, overwhelmed, observant, quiet, expressive-in-own-way, methodical, earnest""}",survey-text,3,2.1.0,827415,583b397f54686200010f1d20,691666c81a5eeee631c26019,691670cf124598dcbf24d210,behavior,1k1xhx2t1j.csv
30944,,"{""Sound"":""Monotone, soft-spoken, flat-affect, precise, scripted, echoing, rhythmic, uneven, quiet, deliberate""}",survey-text,4,2.1.0,858360,583b397f54686200010f1d20,691666c81a5eeee631c26019,691670cf124598dcbf24d210,sound,1k1xhx2t1j.csv
13098,,"{""Know"":""No""}",survey-text,5,2.1.0,871462,583b397f54686200010f1d20,691666c81a5eeee631c26019,691670cf124598dcbf24d210,know,1k1xhx2t1j.csv
3165,"<p>Thank you for providing your impressions of autism. You will now be directed to an optional demographic survey. Please answer the survey questions if you feel comfortable doing so. After seeing the survey, you will be able to end the study.</p>",0,html-button-response,6,2.1.0,874627,583b397f54686200010f1d20,691666c81a5eeee631c26019,691670cf124598dcbf24d210,,1k1xhx2t1j.csv
22967,,"{""understood"":true,""age"":53,""gender"":""Female"",""ethnicity"":""Black"",""enjoy"":""Average study"",""payment"":""The payment was fair"",""question1"":null,""comments"":null}",survey,7,3.0.0,897653,583b397f54686200010f1d20,691666c81a5eeee631c26019,691670cf124598dcbf24d210,,1k1xhx2t1j.csv
10208,"
        <div style=""font-size: 16px; text-align: center; margin-top: 25px; margin-right: 100px; margin-left: 100px; margin-bottom: 25px;"">
            <img src=""./image/SUSig_2color_Stree_Left.png"" alt=""Stanford Logo"" style=""max-width: 500px; margin-bottom: 20px;"">
            <h3>DESCRIPTION</h3>
            <p>You are invited to participate in a research study. It’s general purpose is to understand what associations people hold with Autism Spectrum Condition. In this study, we will ask you a four questions about your broad impressions of Autism. Following this, you will be asked to complete an optional demographic survey. Participation in this research is voluntary, and you are free to withdraw your consent at any time.</p>
            <h3>TIME INVOLVEMENT</h3> 
            <p>Your participation will take approximately 4 minutes.</p>
            <h3>PAYMENT</h3> 
            <p>You will be paid at the posted rate.</p>
            <h3>PRIVACY AND CONFIDENTIALITY</h3> 
            <p>The risks associated with this study are minimal. This judgment is based on a large body of experience with the same or similar procedures with people of similar ages, sex, origins, etc. Study data will be stored securely, in compliance with Stanford University standards, minimizing the risk of confidentiality breach. Your individual privacy will be maintained during the research and in all published and written data resulting from the study.</p>
            <h3>CONTACT INFORMATION</h3>
            <p>If you have any questions, concerns or complaints about this research study, its procedures, risks and benefits, you should contact the Protocol Director, Grace Brown, at (616) 498-8188. If you are not satisfied with how this study is being conducted, or if you have any concerns, complaints, or general questions about the research or your rights as a participant, please contact the Stanford Institutional Review Board (IRB) to speak to someone independent of the research team at (650) 723-2480 or toll free at 1-866-680-2906. You can also write to the Stanford IRB, Stanford University, 1705 El Camino Real, Palo Alto, CA 94306 USA.</p> 
            <h3>WAIVER OF DOCUMENTATION</h3>
            <p>If you agree to participate in this research, please click the 'Continue' button.</p>
        </div>",0,html-button-response,0,2.1.0,10219,60fdb73b85f276ed91d84eb9,691666c81a5eeee631c26019,69166cfbbaa4d4933182f1dd,,1p4o6dwfvc.csv
51749,"<p>Autism has received increased public attention in recent years, leading to a wide range of discussions about what it means to be autistic. To better understand how people in the United States think and talk about autism, we will ask you four short questions about your general impressions of the condition. Following this, you have the opportunity to complete an optional demographic survey. Your responses will help us learn more about how autism is perceived and discussed in everyday life.<br><br>If you understand the instructions and are ready to begin, click ‘Continue’.</p>",0,html-button-response,1,2.1.0,61969,60fdb73b85f276ed91d84eb9,691666c81a5eeee631c26019,69166cfbbaa4d4933182f1dd,,1p4o6dwfvc.csv
171618,,"{""Person"":""complex, patterns, neurodivergent, misunderstood, ostracized""}",survey-text,2,2.1.0,233589,60fdb73b85f276ed91d84eb9,691666c81a5eeee631c26019,69166cfbbaa4d4933182f1dd,person,1p4o6dwfvc.csv
158398,,"{""Behavior"":""reserved, fluid, blunt, introverted, alert""}",survey-text,3,2.1.0,391985,60fdb73b85f276ed91d84eb9,691666c81a5eeee631c26019,69166cfbbaa4d4933182f1dd,behavior,1p4o6dwfvc.csv
88284,,"{""Sound"":""monotone, calm, intelligent, blunt, awkward, animated""}",survey-text,4,2.1.0,480268,60fdb73b85f276ed91d84eb9,691666c81a5eeee631c26019,69166cfbbaa4d4933182f1dd,sound,1p4o6dwfvc.csv
9128,,"{""Know"":""Yes!""}",survey-text,5,2.1.0,489401,60fdb73b85f276ed91d84eb9,691666c81a5eeee631c26019,69166cfbbaa4d4933182f1dd,know,1p4o6dwfvc.csv
4998,"<p>Thank you for providing your impressions of autism. You will now be directed to an optional demographic survey. Please answer the survey questions if you feel comfortable doing so. After seeing the survey, you will be able to end the study.</p>",0,html-button-response,6,2.1.0,494400,60fdb73b85f276ed91d84eb9,691666c81a5eeee631c26019,69166cfbbaa4d4933182f1dd,,1p4o6dwfvc.csv
281813,,"{""understood"":true,""age"":23,""gender"":""Female"",""ethnicity"":""White/Caucasian"",""enjoy"":""Average study"",""payment"":""The payment was fair"",""comments"":""I struggled a bit to come up with specific words. I know some of the general characteristics attributed to autistic people, so I tended to go with those, but autistic folks I know vary a lot in how they behave, talk, etc., especially depending on the setting."",""question1"":null}",survey,7,3.0.0,776287,60fdb73b85f276ed91d84eb9,691666c81a5eeee631c26019,69166cfbbaa4d4933182f1dd,,1p4o6dwfvc.csv
17682,"
        <div style=""font-size: 16px; text-align: center; margin-top: 25px; margin-right: 100px; margin-left: 100px; margin-bottom: 25px;"">
            <img src=""./image/SUSig_2color_Stree_Left.png"" alt=""Stanford Logo"" style=""max-width: 500px; margin-bottom: 20px;"">
            <h3>DESCRIPTION</h3>
            <p>You are invited to participate in a research study. It’s general purpose is to understand what associations people hold with Autism Spectrum Condition. In this study, we will ask you a four questions about your broad impressions of Autism. Following this, you will be asked to complete an optional demographic survey. Participation in this research is voluntary, and you are free to withdraw your consent at any time.</p>
            <h3>TIME INVOLVEMENT</h3> 
            <p>Your participation will take approximately 4 minutes.</p>
            <h3>PAYMENT</h3> 
            <p>You will be paid at the posted rate.</p>
            <h3>PRIVACY AND CONFIDENTIALITY</h3> 
            <p>The risks associated with this study are minimal. This judgment is based on a large body of experience with the same or similar procedures with people of similar ages, sex, origins, etc. Study data will be stored securely, in compliance with Stanford University standards, minimizing the risk of confidentiality breach. Your individual privacy will be maintained during the research and in all published and written data resulting from the study.</p>
            <h3>CONTACT INFORMATION</h3>
            <p>If you have any questions, concerns or complaints about this research study, its procedures, risks and benefits, you should contact the Protocol Director, Grace Brown, at (616) 498-8188. If you are not satisfied with how this study is being conducted, or if you have any concerns, complaints, or general questions about the research or your rights as a participant, please contact the Stanford Institutional Review Board (IRB) to speak to someone independent of the research team at (650) 723-2480 or toll free at 1-866-680-2906. You can also write to the Stanford IRB, Stanford University, 1705 El Camino Real, Palo Alto, CA 94306 USA.</p> 
            <h3>WAIVER OF DOCUMENTATION</h3>
            <p>If you agree to participate in this research, please click the 'Continue' button.</p>
        </div>",0,html-button-response,0,2.1.0,17689,661c5ee0d0e14a2e13e40374,691666c81a5eeee631c26019,691688e3f85eb185becf0879,,25a7nmhw1q.csv
17065,"<p>Autism has received increased public attention in recent years, leading to a wide range of discussions about what it means to be autistic. To better understand how people in the United States think and talk about autism, we will ask you four short questions about your general impressions of the condition. Following this, you have the opportunity to complete an optional demographic survey. Your responses will help us learn more about how autism is perceived and discussed in everyday life.<br><br>If you understand the instructions and are ready to begin, click ‘Continue’.</p>",0,html-button-response,1,2.1.0,34756,661c5ee0d0e14a2e13e40374,691666c81a5eeee631c26019,691688e3f85eb185becf0879,,25a7nmhw1q.csv
78796,,"{""Person"":""An autistic person likes predictability and they can be sensitive to one or more of their senses. They also can be fixated on things that interest them and they can find it difficult to socialize with others.""}",survey-text,2,2.1.0,113560,661c5ee0d0e14a2e13e40374,691666c81a5eeee631c26019,691688e3f85eb185becf0879,person,25a7nmhw1q.csv
54972,,"{""Behavior"":""The behavior varies. There are \""high functioning\"" people with autism. ""}",survey-text,3,2.1.0,168536,661c5ee0d0e14a2e13e40374,691666c81a5eeee631c26019,691688e3f85eb185becf0879,behavior,25a7nmhw1q.csv
72535,,"{""Sound"":""Normal, but they might express enthusiasm when they talk about something that they're fixated on, they can also be quiet and indicate they do not want to socialize.""}",survey-text,4,2.1.0,241073,661c5ee0d0e14a2e13e40374,691666c81a5eeee631c26019,691688e3f85eb185becf0879,sound,25a7nmhw1q.csv
8172,,"{""Know"":""yes""}",survey-text,5,2.1.0,249252,661c5ee0d0e14a2e13e40374,691666c81a5eeee631c26019,691688e3f85eb185becf0879,know,25a7nmhw1q.csv
4925,"<p>Thank you for providing your impressions of autism. You will now be directed to an optional demographic survey. Please answer the survey questions if you feel comfortable doing so. After seeing the survey, you will be able to end the study.</p>",0,html-button-response,6,2.1.0,254179,661c5ee0d0e14a2e13e40374,691666c81a5eeee631c26019,691688e3f85eb185becf0879,,25a7nmhw1q.csv
69231,,"{""understood"":true,""age"":35,""gender"":""Female"",""ethnicity"":""Latino"",""enjoy"":""Average study"",""payment"":""The payment was fair"",""comments"":""I think autism \""behaviors\"" also depend on the age of the person and when they received diagnosis."",""question1"":null}",survey,7,3.0.0,323482,661c5ee0d0e14a2e13e40374,691666c81a5eeee631c26019,691688e3f85eb185becf0879,,25a7nmhw1q.csv
1702,"
        <div style=""font-size: 16px; text-align: center; margin-top: 25px; margin-right: 100px; margin-left: 100px; margin-bottom: 25px;"">
            <img src=""./image/SUSig_2color_Stree_Left.png"" alt=""Stanford Logo"" style=""max-width: 500px; margin-bottom: 20px;"">
            <h3>DESCRIPTION</h3>
            <p>You are invited to participate in a research study. It’s general purpose is to understand what associations people hold with Autism Spectrum Condition. In this study, we will ask you a four questions about your broad impressions of Autism. Following this, you will be asked to complete an optional demographic survey. Participation in this research is voluntary, and you are free to withdraw your consent at any time.</p>
            <h3>TIME INVOLVEMENT</h3> 
            <p>Your participation will take approximately 4 minutes.</p>
            <h3>PAYMENT</h3> 
            <p>You will be paid at the posted rate.</p>
            <h3>PRIVACY AND CONFIDENTIALITY</h3> 
            <p>The risks associated with this study are minimal. This judgment is based on a large body of experience with the same or similar procedures with people of similar ages, sex, origins, etc. Study data will be stored securely, in compliance with Stanford University standards, minimizing the risk of confidentiality breach. Your individual privacy will be maintained during the research and in all published and written data resulting from the study.</p>
            <h3>CONTACT INFORMATION</h3>
            <p>If you have any questions, concerns or complaints about this research study, its procedures, risks and benefits, you should contact the Protocol Director, Grace Brown, at (616) 498-8188. If you are not satisfied with how this study is being conducted, or if you have any concerns, complaints, or general questions about the research or your rights as a participant, please contact the Stanford Institutional Review Board (IRB) to speak to someone independent of the research team at (650) 723-2480 or toll free at 1-866-680-2906. You can also write to the Stanford IRB, Stanford University, 1705 El Camino Real, Palo Alto, CA 94306 USA.</p> 
            <h3>WAIVER OF DOCUMENTATION</h3>
            <p>If you agree to participate in this research, please click the 'Continue' button.</p>
        </div>",0,html-button-response,0,2.1.0,1708,66199822c723a66ae0d5fc24,691666c81a5eeee631c26019,6916708f4dbcd0090cd9a283,,25zrbe9kht.csv
4041,"<p>Autism has received increased public attention in recent years, leading to a wide range of discussions about what it means to be autistic. To better understand how people in the United States think and talk about autism, we will ask you four short questions about your general impressions of the condition. Following this, you have the opportunity to complete an optional demographic survey. Your responses will help us learn more about how autism is perceived and discussed in everyday life.<br><br>If you understand the instructions and are ready to begin, click ‘Continue’.</p>",0,html-button-response,1,2.1.0,5750,66199822c723a66ae0d5fc24,691666c81a5eeee631c26019,6916708f4dbcd0090cd9a283,,25zrbe9kht.csv
46547,,"{""Person"":""socially awkward, sensitive, smart, hyperfocus, unaware of social expectations""}",survey-text,2,2.1.0,52303,66199822c723a66ae0d5fc24,691666c81a5eeee631c26019,6916708f4dbcd0090cd9a283,person,25zrbe9kht.csv
23437,,"{""Behavior"":""awkward, strange, unique, loud, different""}",survey-text,3,2.1.0,75741,66199822c723a66ae0d5fc24,691666c81a5eeee631c26019,6916708f4dbcd0090cd9a283,behavior,25zrbe9kht.csv
24638,,"{""Sound"":""regular, loud, normal, slow speaking, fast speaking""}",survey-text,4,2.1.0,100380,66199822c723a66ae0d5fc24,691666c81a5eeee631c26019,6916708f4dbcd0090cd9a283,sound,25zrbe9kht.csv
3481,,"{""Know"":""yes""}",survey-text,5,2.1.0,103865,66199822c723a66ae0d5fc24,691666c81a5eeee631c26019,6916708f4dbcd0090cd9a283,know,25zrbe9kht.csv
3328,"<p>Thank you for providing your impressions of autism. You will now be directed to an optional demographic survey. Please answer the survey questions if you feel comfortable doing so. After seeing the survey, you will be able to end the study.</p>",0,html-button-response,6,2.1.0,107195,66199822c723a66ae0d5fc24,691666c81a5eeee631c26019,6916708f4dbcd0090cd9a283,,25zrbe9kht.csv
13468,,"{""understood"":true,""age"":28,""gender"":""Female"",""ethnicity"":""white"",""enjoy"":""Average study"",""payment"":""The payment was fair"",""question1"":null,""comments"":null}",survey,7,3.0.0,120728,66199822c723a66ae0d5fc24,691666c81a5eeee631c26019,6916708f4dbcd0090cd9a283,,25zrbe9kht.csv
3303,"
        <div style=""font-size: 16px; text-align: center; margin-top: 25px; margin-right: 100px; margin-left: 100px; margin-bottom: 25px;"">
            <img src=""./image/SUSig_2color_Stree_Left.png"" alt=""Stanford Logo"" style=""max-width: 500px; margin-bottom: 20px;"">
            <h3>DESCRIPTION</h3>
            <p>You are invited to participate in a research study. It’s general purpose is to understand what associations people hold with Autism Spectrum Condition. In this study, we will ask you a four questions about your broad impressions of Autism. Following this, you will be asked to complete an optional demographic survey. Participation in this research is voluntary, and you are free to withdraw your consent at any time.</p>
            <h3>TIME INVOLVEMENT</h3> 
            <p>Your participation will take approximately 4 minutes.</p>
            <h3>PAYMENT</h3> 
            <p>You will be paid at the posted rate.</p>
            <h3>PRIVACY AND CONFIDENTIALITY</h3> 
            <p>The risks associated with this study are minimal. This judgment is based on a large body of experience with the same or similar procedures with people of similar ages, sex, origins, etc. Study data will be stored securely, in compliance with Stanford University standards, minimizing the risk of confidentiality breach. Your individual privacy will be maintained during the research and in all published and written data resulting from the study.</p>
            <h3>CONTACT INFORMATION</h3>
            <p>If you have any questions, concerns or complaints about this research study, its procedures, risks and benefits, you should contact the Protocol Director, Grace Brown, at (616) 498-8188. If you are not satisfied with how this study is being conducted, or if you have any concerns, complaints, or general questions about the research or your rights as a participant, please contact the Stanford Institutional Review Board (IRB) to speak to someone independent of the research team at (650) 723-2480 or toll free at 1-866-680-2906. You can also write to the Stanford IRB, Stanford University, 1705 El Camino Real, Palo Alto, CA 94306 USA.</p> 
            <h3>WAIVER OF DOCUMENTATION</h3>
            <p>If you agree to participate in this research, please click the 'Continue' button.</p>
        </div>",0,html-button-response,0,2.1.0,3313,5f23ff398626c51fdd6c3fb5,691666c81a5eeee631c26019,6916733b7a4efeab141a8f0f,,2jo4bffyux.csv
9698,"<p>Autism has received increased public attention in recent years, leading to a wide range of discussions about what it means to be autistic. To better understand how people in the United States think and talk about autism, we will ask you four short questions about your general impressions of the condition. Following this, you have the opportunity to complete an optional demographic survey. Your responses will help us learn more about how autism is perceived and discussed in everyday life.<br><br>If you understand the instructions and are ready to begin, click ‘Continue’.</p>",0,html-button-response,1,2.1.0,13012,5f23ff398626c51fdd6c3fb5,691666c81a5eeee631c26019,6916733b7a4efeab141a8f0f,,2jo4bffyux.csv
56924,,"{""Person"":""Intelligent, open-minded, anxious, eccentric, reserved""}",survey-text,2,2.1.0,69952,5f23ff398626c51fdd6c3fb5,691666c81a5eeee631c26019,6916733b7a4efeab141a8f0f,person,2jo4bffyux.csv
82170,,"{""Behavior"":""anxious, impulsive, disorganized, emotionless, frustrated a lot""}",survey-text,3,2.1.0,152131,5f23ff398626c51fdd6c3fb5,691666c81a5eeee631c26019,6916733b7a4efeab141a8f0f,behavior,2jo4bffyux.csv
48341,,"{""Sound"":""worried, afraid, uncertain, quiet, pessimistic""}",survey-text,4,2.1.0,200480,5f23ff398626c51fdd6c3fb5,691666c81a5eeee631c26019,6916733b7a4efeab141a8f0f,sound,2jo4bffyux.csv
4367,,"{""Know"":""Yes""}",survey-text,5,2.1.0,204858,5f23ff398626c51fdd6c3fb5,691666c81a5eeee631c26019,6916733b7a4efeab141a8f0f,know,2jo4bffyux.csv
1255,"<p>Thank you for providing your impressions of autism. You will now be directed to an optional demographic survey. Please answer the survey questions if you feel comfortable doing so. After seeing the survey, you will be able to end the study.</p>",0,html-button-response,6,2.1.0,206116,5f23ff398626c51fdd6c3fb5,691666c81a5eeee631c26019,6916733b7a4efeab141a8f0f,,2jo4bffyux.csv
18764,,"{""understood"":true,""age"":43,""gender"":""Female"",""ethnicity"":""Caucasian"",""enjoy"":""Average study"",""payment"":""The payment was fair"",""comments"":""No"",""question1"":null}",survey,7,3.0.0,224943,5f23ff398626c51fdd6c3fb5,691666c81a5eeee631c26019,6916733b7a4efeab141a8f0f,,2jo4bffyux.csv
1953,"
        <div style=""font-size: 16px; text-align: center; margin-top: 25px; margin-right: 100px; margin-left: 100px; margin-bottom: 25px;"">
            <img src=""./image/SUSig_2color_Stree_Left.png"" alt=""Stanford Logo"" style=""max-width: 500px; margin-bottom: 20px;"">
            <h3>DESCRIPTION</h3>
            <p>You are invited to participate in a research study. It’s general purpose is to understand what associations people hold with Autism Spectrum Condition. In this study, we will ask you a four questions about your broad impressions of Autism. Following this, you will be asked to complete an optional demographic survey. Participation in this research is voluntary, and you are free to withdraw your consent at any time.</p>
            <h3>TIME INVOLVEMENT</h3> 
            <p>Your participation will take approximately 4 minutes.</p>
            <h3>PAYMENT</h3> 
            <p>You will be paid at the posted rate.</p>
            <h3>PRIVACY AND CONFIDENTIALITY</h3> 
            <p>The risks associated with this study are minimal. This judgment is based on a large body of experience with the same or similar procedures with people of similar ages, sex, origins, etc. Study data will be stored securely, in compliance with Stanford University standards, minimizing the risk of confidentiality breach. Your individual privacy will be maintained during the research and in all published and written data resulting from the study.</p>
            <h3>CONTACT INFORMATION</h3>
            <p>If you have any questions, concerns or complaints about this research study, its procedures, risks and benefits, you should contact the Protocol Director, Grace Brown, at (616) 498-8188. If you are not satisfied with how this study is being conducted, or if you have any concerns, complaints, or general questions about the research or your rights as a participant, please contact the Stanford Institutional Review Board (IRB) to speak to someone independent of the research team at (650) 723-2480 or toll free at 1-866-680-2906. You can also write to the Stanford IRB, Stanford University, 1705 El Camino Real, Palo Alto, CA 94306 USA.</p> 
            <h3>WAIVER OF DOCUMENTATION</h3>
            <p>If you agree to participate in this research, please click the 'Continue' button.</p>
        </div>",0,html-button-response,0,2.1.0,2013,63f8ce09e792bf06684febec,691666c81a5eeee631c26019,69166d91c3ead1ae658fd224,,3fvttzh7qg.csv
5153,"<p>Autism has received increased public attention in recent years, leading to a wide range of discussions about what it means to be autistic. To better understand how people in the United States think and talk about autism, we will ask you four short questions about your general impressions of the condition. Following this, you have the opportunity to complete an optional demographic survey. Your responses will help us learn more about how autism is perceived and discussed in everyday life.<br><br>If you understand the instructions and are ready to begin, click ‘Continue’.</p>",0,html-button-response,1,2.1.0,7170,63f8ce09e792bf06684febec,691666c81a5eeee631c26019,69166d91c3ead1ae658fd224,,3fvttzh7qg.csv
62876,,"{""Person"":""Divergent, Needs, Specialized, Ostracized, One-way,  ""}",survey-text,2,2.1.0,70063,63f8ce09e792bf06684febec,691666c81a5eeee631c26019,69166d91c3ead1ae658fd224,person,3fvttzh7qg.csv
39919,,"{""Behavior"":""Different, Reserved, Impulsive, Uniformed, Routined""}",survey-text,3,2.1.0,109986,63f8ce09e792bf06684febec,691666c81a5eeee631c26019,69166d91c3ead1ae658fd224,behavior,3fvttzh7qg.csv
52651,,"{""Sound"":""Monotone, Emotionless, Low, High, Childish""}",survey-text,4,2.1.0,162640,63f8ce09e792bf06684febec,691666c81a5eeee631c26019,69166d91c3ead1ae658fd224,sound,3fvttzh7qg.csv
15469,,"{""Know"":""Family members""}",survey-text,5,2.1.0,178114,63f8ce09e792bf06684febec,691666c81a5eeee631c26019,69166d91c3ead1ae658fd224,know,3fvttzh7qg.csv
2339,"<p>Thank you for providing your impressions of autism. You will now be directed to an optional demographic survey. Please answer the survey questions if you feel comfortable doing so. After seeing the survey, you will be able to end the study.</p>",0,html-button-response,6,2.1.0,180454,63f8ce09e792bf06684febec,691666c81a5eeee631c26019,69166d91c3ead1ae658fd224,,3fvttzh7qg.csv
23658,,"{""understood"":true,""age"":31,""gender"":""Male"",""ethnicity"":""American Indian"",""enjoy"":""Better than average study"",""payment"":""The payment was fair"",""comments"":""None"",""question1"":null}",survey,7,3.0.0,204230,63f8ce09e792bf06684febec,691666c81a5eeee631c26019,69166d91c3ead1ae658fd224,,3fvttzh7qg.csv
5019,"
        <div style=""font-size: 16px; text-align: center; margin-top: 25px; margin-right: 100px; margin-left: 100px; margin-bottom: 25px;"">
            <img src=""./image/SUSig_2color_Stree_Left.png"" alt=""Stanford Logo"" style=""max-width: 500px; margin-bottom: 20px;"">
            <h3>DESCRIPTION</h3>
            <p>You are invited to participate in a research study. It’s general purpose is to understand what associations people hold with Autism Spectrum Condition. In this study, we will ask you a four questions about your broad impressions of Autism. Following this, you will be asked to complete an optional demographic survey. Participation in this research is voluntary, and you are free to withdraw your consent at any time.</p>
            <h3>TIME INVOLVEMENT</h3> 
            <p>Your participation will take approximately 4 minutes.</p>
            <h3>PAYMENT</h3> 
            <p>You will be paid at the posted rate.</p>
            <h3>PRIVACY AND CONFIDENTIALITY</h3> 
            <p>The risks associated with this study are minimal. This judgment is based on a large body of experience with the same or similar procedures with people of similar ages, sex, origins, etc. Study data will be stored securely, in compliance with Stanford University standards, minimizing the risk of confidentiality breach. Your individual privacy will be maintained during the research and in all published and written data resulting from the study.</p>
            <h3>CONTACT INFORMATION</h3>
            <p>If you have any questions, concerns or complaints about this research study, its procedures, risks and benefits, you should contact the Protocol Director, Grace Brown, at (616) 498-8188. If you are not satisfied with how this study is being conducted, or if you have any concerns, complaints, or general questions about the research or your rights as a participant, please contact the Stanford Institutional Review Board (IRB) to speak to someone independent of the research team at (650) 723-2480 or toll free at 1-866-680-2906. You can also write to the Stanford IRB, Stanford University, 1705 El Camino Real, Palo Alto, CA 94306 USA.</p> 
            <h3>WAIVER OF DOCUMENTATION</h3>
            <p>If you agree to participate in this research, please click the 'Continue' button.</p>
        </div>",0,html-button-response,0,2.1.0,5044,5b8dbff00c740e00019d861a,691666c81a5eeee631c26019,69166e0643556eb4a51fbf45,,3z0mw6v94n.csv
13690,"<p>Autism has received increased public attention in recent years, leading to a wide range of discussions about what it means to be autistic. To better understand how people in the United States think and talk about autism, we will ask you four short questions about your general impressions of the condition. Following this, you have the opportunity to complete an optional demographic survey. Your responses will help us learn more about how autism is perceived and discussed in everyday life.<br><br>If you understand the instructions and are ready to begin, click ‘Continue’.</p>",0,html-button-response,1,2.1.0,18742,5b8dbff00c740e00019d861a,691666c81a5eeee631c26019,69166e0643556eb4a51fbf45,,3z0mw6v94n.csv
46018,,"{""Person"":""quirky, overstimulated, awkward, neurodivergent, strange, reserved""}",survey-text,2,2.1.0,64789,5b8dbff00c740e00019d861a,691666c81a5eeee631c26019,69166e0643556eb4a51fbf45,person,3z0mw6v94n.csv
51125,,"{""Behavior"":""reserved, withdrawn, socially awkward, focused, unaware""}",survey-text,3,2.1.0,115923,5b8dbff00c740e00019d861a,691666c81a5eeee631c26019,69166e0643556eb4a51fbf45,behavior,3z0mw6v94n.csv
104354,,"{""Sound"":""stiff, flat, either too quiet or too loud""}",survey-text,4,2.1.0,220284,5b8dbff00c740e00019d861a,691666c81a5eeee631c26019,69166e0643556eb4a51fbf45,sound,3z0mw6v94n.csv
28869,,"{""Know"":""My brother isn't diagnosed but it's pretty obvious he is. I have autistic students in my class.""}",survey-text,5,2.1.0,249182,5b8dbff00c740e00019d861a,691666c81a5eeee631c26019,69166e0643556eb4a51fbf45,know,3z0mw6v94n.csv
3189,"<p>Thank you for providing your impressions of autism. You will now be directed to an optional demographic survey. Please answer the survey questions if you feel comfortable doing so. After seeing the survey, you will be able to end the study.</p>",0,html-button-response,6,2.1.0,252373,5b8dbff00c740e00019d861a,691666c81a5eeee631c26019,69166e0643556eb4a51fbf45,,3z0mw6v94n.csv
18046,,"{""understood"":true,""age"":31,""gender"":""Female"",""ethnicity"":""white"",""enjoy"":""Average study"",""payment"":""The payment was fair"",""question1"":null,""comments"":null}",survey,7,3.0.0,270744,5b8dbff00c740e00019d861a,691666c81a5eeee631c26019,69166e0643556eb4a51fbf45,,3z0mw6v94n.csv
39075,"
        <div style=""font-size: 16px; text-align: center; margin-top: 25px; margin-right: 100px; margin-left: 100px; margin-bottom: 25px;"">
            <img src=""./image/SUSig_2color_Stree_Left.png"" alt=""Stanford Logo"" style=""max-width: 500px; margin-bottom: 20px;"">
            <h3>DESCRIPTION</h3>
            <p>You are invited to participate in a research study. It’s general purpose is to understand what associations people hold with Autism Spectrum Condition. In this study, we will ask you a four questions about your broad impressions of Autism. Following this, you will be asked to complete an optional demographic survey. Participation in this research is voluntary, and you are free to withdraw your consent at any time.</p>
            <h3>TIME INVOLVEMENT</h3> 
            <p>Your participation will take approximately 4 minutes.</p>
            <h3>PAYMENT</h3> 
            <p>You will be paid at the posted rate.</p>
            <h3>PRIVACY AND CONFIDENTIALITY</h3> 
            <p>The risks associated with this study are minimal. This judgment is based on a large body of experience with the same or similar procedures with people of similar ages, sex, origins, etc. Study data will be stored securely, in compliance with Stanford University standards, minimizing the risk of confidentiality breach. Your individual privacy will be maintained during the research and in all published and written data resulting from the study.</p>
            <h3>CONTACT INFORMATION</h3>
            <p>If you have any questions, concerns or complaints about this research study, its procedures, risks and benefits, you should contact the Protocol Director, Grace Brown, at (616) 498-8188. If you are not satisfied with how this study is being conducted, or if you have any concerns, complaints, or general questions about the research or your rights as a participant, please contact the Stanford Institutional Review Board (IRB) to speak to someone independent of the research team at (650) 723-2480 or toll free at 1-866-680-2906. You can also write to the Stanford IRB, Stanford University, 1705 El Camino Real, Palo Alto, CA 94306 USA.</p> 
            <h3>WAIVER OF DOCUMENTATION</h3>
            <p>If you agree to participate in this research, please click the 'Continue' button.</p>
        </div>",0,html-button-response,0,2.1.0,39085,60b3e6ad448226548d21fc4d,691666c81a5eeee631c26019,69166f59ae135fb419b22f8f,,4h29ca8fyg.csv
5011,"<p>Autism has received increased public attention in recent years, leading to a wide range of discussions about what it means to be autistic. To better understand how people in the United States think and talk about autism, we will ask you four short questions about your general impressions of the condition. Following this, you have the opportunity to complete an optional demographic survey. Your responses will help us learn more about how autism is perceived and discussed in everyday life.<br><br>If you understand the instructions and are ready to begin, click ‘Continue’.</p>",0,html-button-response,1,2.1.0,44098,60b3e6ad448226548d21fc4d,691666c81a5eeee631c26019,69166f59ae135fb419b22f8f,,4h29ca8fyg.csv
20314,,"{""Person"":""bored, annoyed, disabled, annoying, frustrating""}",survey-text,2,2.1.0,64417,60b3e6ad448226548d21fc4d,691666c81a5eeee631c26019,69166f59ae135fb419b22f8f,person,4h29ca8fyg.csv
30721,,"{""Behavior"":""pest, annoying, irritating, pain, bratty""}",survey-text,3,2.1.0,95140,60b3e6ad448226548d21fc4d,691666c81a5eeee631c26019,69166f59ae135fb419b22f8f,behavior,4h29ca8fyg.csv
26413,,"{""Sound"":""monotone, silly, boring, annoying, creepy""}",survey-text,4,2.1.0,121555,60b3e6ad448226548d21fc4d,691666c81a5eeee631c26019,69166f59ae135fb419b22f8f,sound,4h29ca8fyg.csv
4365,,"{""Know"":""no""}",survey-text,5,2.1.0,125927,60b3e6ad448226548d21fc4d,691666c81a5eeee631c26019,69166f59ae135fb419b22f8f,know,4h29ca8fyg.csv
25543,"<p>Thank you for providing your impressions of autism. You will now be directed to an optional demographic survey. Please answer the survey questions if you feel comfortable doing so. After seeing the survey, you will be able to end the study.</p>",0,html-button-response,6,2.1.0,151472,60b3e6ad448226548d21fc4d,691666c81a5eeee631c26019,69166f59ae135fb419b22f8f,,4h29ca8fyg.csv
74109,,"{""understood"":false,""age"":55,""gender"":""Female"",""ethnicity"":""Jewish"",""enjoy"":""Worse than average study"",""payment"":""The payment was too low"",""question1"":null,""comments"":null}",survey,7,3.0.0,225668,60b3e6ad448226548d21fc4d,691666c81a5eeee631c26019,69166f59ae135fb419b22f8f,,4h29ca8fyg.csv
2947,"
        <div style=""font-size: 16px; text-align: center; margin-top: 25px; margin-right: 100px; margin-left: 100px; margin-bottom: 25px;"">
            <img src=""./image/SUSig_2color_Stree_Left.png"" alt=""Stanford Logo"" style=""max-width: 500px; margin-bottom: 20px;"">
            <h3>DESCRIPTION</h3>
            <p>You are invited to participate in a research study. It’s general purpose is to understand what associations people hold with Autism Spectrum Condition. In this study, we will ask you a four questions about your broad impressions of Autism. Following this, you will be asked to complete an optional demographic survey. Participation in this research is voluntary, and you are free to withdraw your consent at any time.</p>
            <h3>TIME INVOLVEMENT</h3> 
            <p>Your participation will take approximately 4 minutes.</p>
            <h3>PAYMENT</h3> 
            <p>You will be paid at the posted rate.</p>
            <h3>PRIVACY AND CONFIDENTIALITY</h3> 
            <p>The risks associated with this study are minimal. This judgment is based on a large body of experience with the same or similar procedures with people of similar ages, sex, origins, etc. Study data will be stored securely, in compliance with Stanford University standards, minimizing the risk of confidentiality breach. Your individual privacy will be maintained during the research and in all published and written data resulting from the study.</p>
            <h3>CONTACT INFORMATION</h3>
            <p>If you have any questions, concerns or complaints about this research study, its procedures, risks and benefits, you should contact the Protocol Director, Grace Brown, at (616) 498-8188. If you are not satisfied with how this study is being conducted, or if you have any concerns, complaints, or general questions about the research or your rights as a participant, please contact the Stanford Institutional Review Board (IRB) to speak to someone independent of the research team at (650) 723-2480 or toll free at 1-866-680-2906. You can also write to the Stanford IRB, Stanford University, 1705 El Camino Real, Palo Alto, CA 94306 USA.</p> 
            <h3>WAIVER OF DOCUMENTATION</h3>
            <p>If you agree to participate in this research, please click the 'Continue' button.</p>
        </div>",0,html-button-response,0,2.1.0,2958,5e387dba03aa45000bc6e272,691666c81a5eeee631c26019,69166e99c2959904828436ff,,4nslo46n9w.csv
5182,"<p>Autism has received increased public attention in recent years, leading to a wide range of discussions about what it means to be autistic. To better understand how people in the United States think and talk about autism, we will ask you four short questions about your general impressions of the condition. Following this, you have the opportunity to complete an optional demographic survey. Your responses will help us learn more about how autism is perceived and discussed in everyday life.<br><br>If you understand the instructions and are ready to begin, click ‘Continue’.</p>",0,html-button-response,1,2.1.0,8143,5e387dba03aa45000bc6e272,691666c81a5eeee631c26019,69166e99c2959904828436ff,,4nslo46n9w.csv
33685,,"{""Person"":""awkward, shy, uncomfortable, difficult, harsh""}",survey-text,2,2.1.0,41862,5e387dba03aa45000bc6e272,691666c81a5eeee631c26019,69166e99c2959904828436ff,person,4nslo46n9w.csv
46040,,"{""Behavior"":""focused, resilient, compassionate, creative, honest""}",survey-text,3,2.1.0,87916,5e387dba03aa45000bc6e272,691666c81a5eeee631c26019,69166e99c2959904828436ff,behavior,4nslo46n9w.csv
72541,,"{""Sound"":""loud, in your face, quirky, sqreachy, repetitive""}",survey-text,4,2.1.0,160475,5e387dba03aa45000bc6e272,691666c81a5eeee631c26019,69166e99c2959904828436ff,sound,4nslo46n9w.csv
2889,,"{""Know"":""yes""}",survey-text,5,2.1.0,163398,5e387dba03aa45000bc6e272,691666c81a5eeee631c26019,69166e99c2959904828436ff,know,4nslo46n9w.csv
1600,"<p>Thank you for providing your impressions of autism. You will now be directed to an optional demographic survey. Please answer the survey questions if you feel comfortable doing so. After seeing the survey, you will be able to end the study.</p>",0,html-button-response,6,2.1.0,165001,5e387dba03aa45000bc6e272,691666c81a5eeee631c26019,69166e99c2959904828436ff,,4nslo46n9w.csv
248494,,"{""understood"":true,""age"":41,""gender"":""Female"",""ethnicity"":""White"",""enjoy"":""Average study"",""payment"":""The payment was fair"",""question1"":null,""comments"":null}",survey,7,3.0.0,413660,5e387dba03aa45000bc6e272,691666c81a5eeee631c26019,69166e99c2959904828436ff,,4nslo46n9w.csv
5485,"
        <div style=""font-size: 16px; text-align: center; margin-top: 25px; margin-right: 100px; margin-left: 100px; margin-bottom: 25px;"">
            <img src=""./image/SUSig_2color_Stree_Left.png"" alt=""Stanford Logo"" style=""max-width: 500px; margin-bottom: 20px;"">
            <h3>DESCRIPTION</h3>
            <p>You are invited to participate in a research study. It’s general purpose is to understand what associations people hold with Autism Spectrum Condition. In this study, we will ask you a four questions about your broad impressions of Autism. Following this, you will be asked to complete an optional demographic survey. Participation in this research is voluntary, and you are free to withdraw your consent at any time.</p>
            <h3>TIME INVOLVEMENT</h3> 
            <p>Your participation will take approximately 4 minutes.</p>
            <h3>PAYMENT</h3> 
            <p>You will be paid at the posted rate.</p>
            <h3>PRIVACY AND CONFIDENTIALITY</h3> 
            <p>The risks associated with this study are minimal. This judgment is based on a large body of experience with the same or similar procedures with people of similar ages, sex, origins, etc. Study data will be stored securely, in compliance with Stanford University standards, minimizing the risk of confidentiality breach. Your individual privacy will be maintained during the research and in all published and written data resulting from the study.</p>
            <h3>CONTACT INFORMATION</h3>
            <p>If you have any questions, concerns or complaints about this research study, its procedures, risks and benefits, you should contact the Protocol Director, Grace Brown, at (616) 498-8188. If you are not satisfied with how this study is being conducted, or if you have any concerns, complaints, or general questions about the research or your rights as a participant, please contact the Stanford Institutional Review Board (IRB) to speak to someone independent of the research team at (650) 723-2480 or toll free at 1-866-680-2906. You can also write to the Stanford IRB, Stanford University, 1705 El Camino Real, Palo Alto, CA 94306 USA.</p> 
            <h3>WAIVER OF DOCUMENTATION</h3>
            <p>If you agree to participate in this research, please click the 'Continue' button.</p>
        </div>",0,html-button-response,0,2.1.0,5497,59e62b6277860e0001512e14,691666c81a5eeee631c26019,69167c39b23a3e0e965eec50,,4qvkaf4798.csv
10773,"<p>Autism has received increased public attention in recent years, leading to a wide range of discussions about what it means to be autistic. To better understand how people in the United States think and talk about autism, we will ask you four short questions about your general impressions of the condition. Following this, you have the opportunity to complete an optional demographic survey. Your responses will help us learn more about how autism is perceived and discussed in everyday life.<br><br>If you understand the instructions and are ready to begin, click ‘Continue’.</p>",0,html-button-response,1,2.1.0,16271,59e62b6277860e0001512e14,691666c81a5eeee631c26019,69167c39b23a3e0e965eec50,,4qvkaf4798.csv
201464,,"{""Person"":""self-centered, quiet, obsessed, solitary, hallucinating""}",survey-text,2,2.1.0,217742,59e62b6277860e0001512e14,691666c81a5eeee631c26019,69167c39b23a3e0e965eec50,person,4qvkaf4798.csv
117925,,"{""Behavior"":""erratically, weird, repetitive, unpredictably, shyly""}",survey-text,3,2.1.0,335676,59e62b6277860e0001512e14,691666c81a5eeee631c26019,69167c39b23a3e0e965eec50,behavior,4qvkaf4798.csv
122748,,"{""Sound"":""tired, bored, moaning, complaining, hurt""}",survey-text,4,2.1.0,458435,59e62b6277860e0001512e14,691666c81a5eeee631c26019,69167c39b23a3e0e965eec50,sound,4qvkaf4798.csv
43338,,"{""Know"":"" Yes. I know a young man who is autistic.""}",survey-text,5,2.1.0,501786,59e62b6277860e0001512e14,691666c81a5eeee631c26019,69167c39b23a3e0e965eec50,know,4qvkaf4798.csv
2421,"<p>Thank you for providing your impressions of autism. You will now be directed to an optional demographic survey. Please answer the survey questions if you feel comfortable doing so. After seeing the survey, you will be able to end the study.</p>",0,html-button-response,6,2.1.0,504209,59e62b6277860e0001512e14,691666c81a5eeee631c26019,69167c39b23a3e0e965eec50,,4qvkaf4798.csv
48859,,"{""understood"":true,""age"":72,""gender"":""Male"",""ethnicity"":""Hispanic"",""enjoy"":""Better than average study"",""payment"":""The payment was fair"",""comments"":""This study was realistic."",""question1"":null}",survey,7,3.0.0,553185,59e62b6277860e0001512e14,691666c81a5eeee631c26019,69167c39b23a3e0e965eec50,,4qvkaf4798.csv
5890,"
        <div style=""font-size: 16px; text-align: center; margin-top: 25px; margin-right: 100px; margin-left: 100px; margin-bottom: 25px;"">
            <img src=""./image/SUSig_2color_Stree_Left.png"" alt=""Stanford Logo"" style=""max-width: 500px; margin-bottom: 20px;"">
            <h3>DESCRIPTION</h3>
            <p>You are invited to participate in a research study. It’s general purpose is to understand what associations people hold with Autism Spectrum Condition. In this study, we will ask you a four questions about your broad impressions of Autism. Following this, you will be asked to complete an optional demographic survey. Participation in this research is voluntary, and you are free to withdraw your consent at any time.</p>
            <h3>TIME INVOLVEMENT</h3> 
            <p>Your participation will take approximately 4 minutes.</p>
            <h3>PAYMENT</h3> 
            <p>You will be paid at the posted rate.</p>
            <h3>PRIVACY AND CONFIDENTIALITY</h3> 
            <p>The risks associated with this study are minimal. This judgment is based on a large body of experience with the same or similar procedures with people of similar ages, sex, origins, etc. Study data will be stored securely, in compliance with Stanford University standards, minimizing the risk of confidentiality breach. Your individual privacy will be maintained during the research and in all published and written data resulting from the study.</p>
            <h3>CONTACT INFORMATION</h3>
            <p>If you have any questions, concerns or complaints about this research study, its procedures, risks and benefits, you should contact the Protocol Director, Grace Brown, at (616) 498-8188. If you are not satisfied with how this study is being conducted, or if you have any concerns, complaints, or general questions about the research or your rights as a participant, please contact the Stanford Institutional Review Board (IRB) to speak to someone independent of the research team at (650) 723-2480 or toll free at 1-866-680-2906. You can also write to the Stanford IRB, Stanford University, 1705 El Camino Real, Palo Alto, CA 94306 USA.</p> 
            <h3>WAIVER OF DOCUMENTATION</h3>
            <p>If you agree to participate in this research, please click the 'Continue' button.</p>
        </div>",0,html-button-response,0,2.1.0,5901,67838c00a0e049fdf173f9bd,691666c81a5eeee631c26019,691677764628eb27b3778d87,,5f0jncllt2.csv
39412,"<p>Autism has received increased public attention in recent years, leading to a wide range of discussions about what it means to be autistic. To better understand how people in the United States think and talk about autism, we will ask you four short questions about your general impressions of the condition. Following this, you have the opportunity to complete an optional demographic survey. Your responses will help us learn more about how autism is perceived and discussed in everyday life.<br><br>If you understand the instructions and are ready to begin, click ‘Continue’.</p>",0,html-button-response,1,2.1.0,45317,67838c00a0e049fdf173f9bd,691666c81a5eeee631c26019,691677764628eb27b3778d87,,5f0jncllt2.csv
111684,,"{""Person"":""sensitive, orderly, orderly, quiet, shy,upset, tantrums, lonley""}",survey-text,2,2.1.0,157008,67838c00a0e049fdf173f9bd,691666c81a5eeee631c26019,691677764628eb27b3778d87,person,5f0jncllt2.csv
51856,,"{""Behavior"":""routines, patterns, avoidant, reserved, cautious""}",survey-text,3,2.1.0,208870,67838c00a0e049fdf173f9bd,691666c81a5eeee631c26019,691677764628eb27b3778d87,behavior,5f0jncllt2.csv
23112,,"{""Sound"":""lisp, rapid, fast, quiet, loud""}",survey-text,4,2.1.0,231988,67838c00a0e049fdf173f9bd,691666c81a5eeee631c26019,691677764628eb27b3778d87,sound,5f0jncllt2.csv
4784,,"{""Know"":""yes""}",survey-text,5,2.1.0,236778,67838c00a0e049fdf173f9bd,691666c81a5eeee631c26019,691677764628eb27b3778d87,know,5f0jncllt2.csv
3181,"<p>Thank you for providing your impressions of autism. You will now be directed to an optional demographic survey. Please answer the survey questions if you feel comfortable doing so. After seeing the survey, you will be able to end the study.</p>",0,html-button-response,6,2.1.0,239962,67838c00a0e049fdf173f9bd,691666c81a5eeee631c26019,691677764628eb27b3778d87,,5f0jncllt2.csv
32306,,"{""understood"":true,""age"":41,""gender"":""Female"",""ethnicity"":""Latin"",""enjoy"":""Better than average study"",""payment"":""The payment was fair"",""comments"":""NA"",""question1"":null}",survey,7,3.0.0,272439,67838c00a0e049fdf173f9bd,691666c81a5eeee631c26019,691677764628eb27b3778d87,,5f0jncllt2.csv
8486,"
        <div style=""font-size: 16px; text-align: center; margin-top: 25px; margin-right: 100px; margin-left: 100px; margin-bottom: 25px;"">
            <img src=""./image/SUSig_2color_Stree_Left.png"" alt=""Stanford Logo"" style=""max-width: 500px; margin-bottom: 20px;"">
            <h3>DESCRIPTION</h3>
            <p>You are invited to participate in a research study. It’s general purpose is to understand what associations people hold with Autism Spectrum Condition. In this study, we will ask you a four questions about your broad impressions of Autism. Following this, you will be asked to complete an optional demographic survey. Participation in this research is voluntary, and you are free to withdraw your consent at any time.</p>
            <h3>TIME INVOLVEMENT</h3> 
            <p>Your participation will take approximately 4 minutes.</p>
            <h3>PAYMENT</h3> 
            <p>You will be paid at the posted rate.</p>
            <h3>PRIVACY AND CONFIDENTIALITY</h3> 
            <p>The risks associated with this study are minimal. This judgment is based on a large body of experience with the same or similar procedures with people of similar ages, sex, origins, etc. Study data will be stored securely, in compliance with Stanford University standards, minimizing the risk of confidentiality breach. Your individual privacy will be maintained during the research and in all published and written data resulting from the study.</p>
            <h3>CONTACT INFORMATION</h3>
            <p>If you have any questions, concerns or complaints about this research study, its procedures, risks and benefits, you should contact the Protocol Director, Grace Brown, at (616) 498-8188. If you are not satisfied with how this study is being conducted, or if you have any concerns, complaints, or general questions about the research or your rights as a participant, please contact the Stanford Institutional Review Board (IRB) to speak to someone independent of the research team at (650) 723-2480 or toll free at 1-866-680-2906. You can also write to the Stanford IRB, Stanford University, 1705 El Camino Real, Palo Alto, CA 94306 USA.</p> 
            <h3>WAIVER OF DOCUMENTATION</h3>
            <p>If you agree to participate in this research, please click the 'Continue' button.</p>
        </div>",0,html-button-response,0,2.1.0,8501,6365a371d807016cebfdb16c,691666c81a5eeee631c26019,69166e7d7cb0abbc5a5483a3,,5n3ukbpmwr.csv
12018,"<p>Autism has received increased public attention in recent years, leading to a wide range of discussions about what it means to be autistic. To better understand how people in the United States think and talk about autism, we will ask you four short questions about your general impressions of the condition. Following this, you have the opportunity to complete an optional demographic survey. Your responses will help us learn more about how autism is perceived and discussed in everyday life.<br><br>If you understand the instructions and are ready to begin, click ‘Continue’.</p>",0,html-button-response,1,2.1.0,20522,6365a371d807016cebfdb16c,691666c81a5eeee631c26019,69166e7d7cb0abbc5a5483a3,,5n3ukbpmwr.csv
52850,,"{""Person"":""A person that struggles existing in a neurotypical world. ""}",survey-text,2,2.1.0,73382,6365a371d807016cebfdb16c,691666c81a5eeee631c26019,69166e7d7cb0abbc5a5483a3,person,5n3ukbpmwr.csv
29111,,"{""Behavior"":""Autistic people behave just fine. Neurotypical people are the badly behaved people.""}",survey-text,3,2.1.0,102502,6365a371d807016cebfdb16c,691666c81a5eeee631c26019,69166e7d7cb0abbc5a5483a3,behavior,5n3ukbpmwr.csv
27846,,"{""Sound"":""They sound just like everyone else except they don't lie""}",survey-text,4,2.1.0,130352,6365a371d807016cebfdb16c,691666c81a5eeee631c26019,69166e7d7cb0abbc5a5483a3,sound,5n3ukbpmwr.csv
18330,,"{""Know"":""Yup""}",survey-text,5,2.1.0,148695,6365a371d807016cebfdb16c,691666c81a5eeee631c26019,69166e7d7cb0abbc5a5483a3,know,5n3ukbpmwr.csv
4067,"<p>Thank you for providing your impressions of autism. You will now be directed to an optional demographic survey. Please answer the survey questions if you feel comfortable doing so. After seeing the survey, you will be able to end the study.</p>",0,html-button-response,6,2.1.0,152765,6365a371d807016cebfdb16c,691666c81a5eeee631c26019,69166e7d7cb0abbc5a5483a3,,5n3ukbpmwr.csv
35378,,"{""understood"":true,""age"":45,""gender"":""Female"",""ethnicity"":""White"",""enjoy"":""Better than average study"",""payment"":""The payment was too low"",""comments"":""no"",""question1"":null}",survey,7,3.0.0,188343,6365a371d807016cebfdb16c,691666c81a5eeee631c26019,69166e7d7cb0abbc5a5483a3,,5n3ukbpmwr.csv
67964,"
        <div style=""font-size: 16px; text-align: center; margin-top: 25px; margin-right: 100px; margin-left: 100px; margin-bottom: 25px;"">
            <img src=""./image/SUSig_2color_Stree_Left.png"" alt=""Stanford Logo"" style=""max-width: 500px; margin-bottom: 20px;"">
            <h3>DESCRIPTION</h3>
            <p>You are invited to participate in a research study. It’s general purpose is to understand what associations people hold with Autism Spectrum Condition. In this study, we will ask you a four questions about your broad impressions of Autism. Following this, you will be asked to complete an optional demographic survey. Participation in this research is voluntary, and you are free to withdraw your consent at any time.</p>
            <h3>TIME INVOLVEMENT</h3> 
            <p>Your participation will take approximately 4 minutes.</p>
            <h3>PAYMENT</h3> 
            <p>You will be paid at the posted rate.</p>
            <h3>PRIVACY AND CONFIDENTIALITY</h3> 
            <p>The risks associated with this study are minimal. This judgment is based on a large body of experience with the same or similar procedures with people of similar ages, sex, origins, etc. Study data will be stored securely, in compliance with Stanford University standards, minimizing the risk of confidentiality breach. Your individual privacy will be maintained during the research and in all published and written data resulting from the study.</p>
            <h3>CONTACT INFORMATION</h3>
            <p>If you have any questions, concerns or complaints about this research study, its procedures, risks and benefits, you should contact the Protocol Director, Grace Brown, at (616) 498-8188. If you are not satisfied with how this study is being conducted, or if you have any concerns, complaints, or general questions about the research or your rights as a participant, please contact the Stanford Institutional Review Board (IRB) to speak to someone independent of the research team at (650) 723-2480 or toll free at 1-866-680-2906. You can also write to the Stanford IRB, Stanford University, 1705 El Camino Real, Palo Alto, CA 94306 USA.</p> 
            <h3>WAIVER OF DOCUMENTATION</h3>
            <p>If you agree to participate in this research, please click the 'Continue' button.</p>
        </div>",0,html-button-response,0,2.1.0,67975,5a9262251eda410001360b2c,691666c81a5eeee631c26019,69167f3832bbb824254a013f,,5ormrhgtrd.csv
78798,"<p>Autism has received increased public attention in recent years, leading to a wide range of discussions about what it means to be autistic. To better understand how people in the United States think and talk about autism, we will ask you four short questions about your general impressions of the condition. Following this, you have the opportunity to complete an optional demographic survey. Your responses will help us learn more about how autism is perceived and discussed in everyday life.<br><br>If you understand the instructions and are ready to begin, click ‘Continue’.</p>",0,html-button-response,1,2.1.0,146775,5a9262251eda410001360b2c,691666c81a5eeee631c26019,69167f3832bbb824254a013f,,5ormrhgtrd.csv
68522,,"{""Person"":""Different, socially awkward, odd, misfit, intelligent, loner, introvert""}",survey-text,2,2.1.0,215303,5a9262251eda410001360b2c,691666c81a5eeee631c26019,69167f3832bbb824254a013f,person,5ormrhgtrd.csv
69998,,"{""Behavior"":""Odd, eccentric, different, weird, slow, passive""}",survey-text,3,2.1.0,285303,5a9262251eda410001360b2c,691666c81a5eeee631c26019,69167f3832bbb824254a013f,behavior,5ormrhgtrd.csv
140455,,"{""Sound"":""Quiet, withdrawn, but can also sound like anyone else, slow, anxious, awkward""}",survey-text,4,2.1.0,425759,5a9262251eda410001360b2c,691666c81a5eeee631c26019,69167f3832bbb824254a013f,sound,5ormrhgtrd.csv
20808,,"{""Know"":""I don't personally know anyone diagnosed with autism, but I suspect I have it.""}",survey-text,5,2.1.0,446575,5a9262251eda410001360b2c,691666c81a5eeee631c26019,69167f3832bbb824254a013f,know,5ormrhgtrd.csv
6535,"<p>Thank you for providing your impressions of autism. You will now be directed to an optional demographic survey. Please answer the survey questions if you feel comfortable doing so. After seeing the survey, you will be able to end the study.</p>",0,html-button-response,6,2.1.0,453111,5a9262251eda410001360b2c,691666c81a5eeee631c26019,69167f3832bbb824254a013f,,5ormrhgtrd.csv
16273,,"{""understood"":true,""age"":42,""gender"":""Female"",""ethnicity"":""East Asian, White"",""enjoy"":""Average study"",""payment"":""The payment was fair"",""question1"":null,""comments"":null}",survey,7,3.0.0,469523,5a9262251eda410001360b2c,691666c81a5eeee631c26019,69167f3832bbb824254a013f,,5ormrhgtrd.csv
4865,"
        <div style=""font-size: 16px; text-align: center; margin-top: 25px; margin-right: 100px; margin-left: 100px; margin-bottom: 25px;"">
            <img src=""./image/SUSig_2color_Stree_Left.png"" alt=""Stanford Logo"" style=""max-width: 500px; margin-bottom: 20px;"">
            <h3>DESCRIPTION</h3>
            <p>You are invited to participate in a research study. It’s general purpose is to understand what associations people hold with Autism Spectrum Condition. In this study, we will ask you a four questions about your broad impressions of Autism. Following this, you will be asked to complete an optional demographic survey. Participation in this research is voluntary, and you are free to withdraw your consent at any time.</p>
            <h3>TIME INVOLVEMENT</h3> 
            <p>Your participation will take approximately 4 minutes.</p>
            <h3>PAYMENT</h3> 
            <p>You will be paid at the posted rate.</p>
            <h3>PRIVACY AND CONFIDENTIALITY</h3> 
            <p>The risks associated with this study are minimal. This judgment is based on a large body of experience with the same or similar procedures with people of similar ages, sex, origins, etc. Study data will be stored securely, in compliance with Stanford University standards, minimizing the risk of confidentiality breach. Your individual privacy will be maintained during the research and in all published and written data resulting from the study.</p>
            <h3>CONTACT INFORMATION</h3>
            <p>If you have any questions, concerns or complaints about this research study, its procedures, risks and benefits, you should contact the Protocol Director, Grace Brown, at (616) 498-8188. If you are not satisfied with how this study is being conducted, or if you have any concerns, complaints, or general questions about the research or your rights as a participant, please contact the Stanford Institutional Review Board (IRB) to speak to someone independent of the research team at (650) 723-2480 or toll free at 1-866-680-2906. You can also write to the Stanford IRB, Stanford University, 1705 El Camino Real, Palo Alto, CA 94306 USA.</p> 
            <h3>WAIVER OF DOCUMENTATION</h3>
            <p>If you agree to participate in this research, please click the 'Continue' button.</p>
        </div>",0,html-button-response,0,2.1.0,4872,6554d04c73158a94d70192dd,691666c81a5eeee631c26019,691675a8c0b5172f08061e6a,,67op6txxnz.csv
3330,"<p>Autism has received increased public attention in recent years, leading to a wide range of discussions about what it means to be autistic. To better understand how people in the United States think and talk about autism, we will ask you four short questions about your general impressions of the condition. Following this, you have the opportunity to complete an optional demographic survey. Your responses will help us learn more about how autism is perceived and discussed in everyday life.<br><br>If you understand the instructions and are ready to begin, click ‘Continue’.</p>",0,html-button-response,1,2.1.0,8203,6554d04c73158a94d70192dd,691666c81a5eeee631c26019,691675a8c0b5172f08061e6a,,67op6txxnz.csv
21902,,"{""Person"":""Awkward, intelligent, focused, aloof, carefree""}",survey-text,2,2.1.0,30110,6554d04c73158a94d70192dd,691666c81a5eeee631c26019,691675a8c0b5172f08061e6a,person,67op6txxnz.csv
22520,,"{""Behavior"":""Socially different, high strung, sensitive to light and sound""}",survey-text,3,2.1.0,52631,6554d04c73158a94d70192dd,691666c81a5eeee631c26019,691675a8c0b5172f08061e6a,behavior,67op6txxnz.csv
20407,,"{""Sound"":""Concise, intelligent, fluent, does not like small talk""}",survey-text,4,2.1.0,73039,6554d04c73158a94d70192dd,691666c81a5eeee631c26019,691675a8c0b5172f08061e6a,sound,67op6txxnz.csv
14147,,"{""Know"":""Yes. My friends brother and my friends daughter.""}",survey-text,5,2.1.0,87189,6554d04c73158a94d70192dd,691666c81a5eeee631c26019,691675a8c0b5172f08061e6a,know,67op6txxnz.csv
1692,"<p>Thank you for providing your impressions of autism. You will now be directed to an optional demographic survey. Please answer the survey questions if you feel comfortable doing so. After seeing the survey, you will be able to end the study.</p>",0,html-button-response,6,2.1.0,88882,6554d04c73158a94d70192dd,691666c81a5eeee631c26019,691675a8c0b5172f08061e6a,,67op6txxnz.csv
15541,,"{""understood"":true,""age"":37,""gender"":""Female"",""ethnicity"":""Hispanic"",""enjoy"":""Average study"",""payment"":""The payment was fair"",""question1"":null,""comments"":null}",survey,7,3.0.0,104465,6554d04c73158a94d70192dd,691666c81a5eeee631c26019,691675a8c0b5172f08061e6a,,67op6txxnz.csv
2070,"
        <div style=""font-size: 16px; text-align: center; margin-top: 25px; margin-right: 100px; margin-left: 100px; margin-bottom: 25px;"">
            <img src=""./image/SUSig_2color_Stree_Left.png"" alt=""Stanford Logo"" style=""max-width: 500px; margin-bottom: 20px;"">
            <h3>DESCRIPTION</h3>
            <p>You are invited to participate in a research study. It’s general purpose is to understand what associations people hold with Autism Spectrum Condition. In this study, we will ask you a four questions about your broad impressions of Autism. Following this, you will be asked to complete an optional demographic survey. Participation in this research is voluntary, and you are free to withdraw your consent at any time.</p>
            <h3>TIME INVOLVEMENT</h3> 
            <p>Your participation will take approximately 4 minutes.</p>
            <h3>PAYMENT</h3> 
            <p>You will be paid at the posted rate.</p>
            <h3>PRIVACY AND CONFIDENTIALITY</h3> 
            <p>The risks associated with this study are minimal. This judgment is based on a large body of experience with the same or similar procedures with people of similar ages, sex, origins, etc. Study data will be stored securely, in compliance with Stanford University standards, minimizing the risk of confidentiality breach. Your individual privacy will be maintained during the research and in all published and written data resulting from the study.</p>
            <h3>CONTACT INFORMATION</h3>
            <p>If you have any questions, concerns or complaints about this research study, its procedures, risks and benefits, you should contact the Protocol Director, Grace Brown, at (616) 498-8188. If you are not satisfied with how this study is being conducted, or if you have any concerns, complaints, or general questions about the research or your rights as a participant, please contact the Stanford Institutional Review Board (IRB) to speak to someone independent of the research team at (650) 723-2480 or toll free at 1-866-680-2906. You can also write to the Stanford IRB, Stanford University, 1705 El Camino Real, Palo Alto, CA 94306 USA.</p> 
            <h3>WAIVER OF DOCUMENTATION</h3>
            <p>If you agree to participate in this research, please click the 'Continue' button.</p>
        </div>",0,html-button-response,0,2.1.0,2080,66bcffc3e6f77501141b3d0f,691666c81a5eeee631c26019,69168372ec2a169ccb805c38,,6abhz1m6xx.csv
11595,"<p>Autism has received increased public attention in recent years, leading to a wide range of discussions about what it means to be autistic. To better understand how people in the United States think and talk about autism, we will ask you four short questions about your general impressions of the condition. Following this, you have the opportunity to complete an optional demographic survey. Your responses will help us learn more about how autism is perceived and discussed in everyday life.<br><br>If you understand the instructions and are ready to begin, click ‘Continue’.</p>",0,html-button-response,1,2.1.0,13678,66bcffc3e6f77501141b3d0f,691666c81a5eeee631c26019,69168372ec2a169ccb805c38,,6abhz1m6xx.csv
114862,,"{""Person"":""Intelligent, Creative, Logical, Detail-oriented, Honest, Passionate, Tenacious, Unique, Caring, Resilient""}",survey-text,2,2.1.0,128547,66bcffc3e6f77501141b3d0f,691666c81a5eeee631c26019,69168372ec2a169ccb805c38,person,6abhz1m6xx.csv
52458,,"{""Behavior"":""Focused, Detail-oriented, Direct, Routine-seeking, Deep-thinking, Honest, Sensory-sensitive, Analytical, Observant""}",survey-text,3,2.1.0,181007,66bcffc3e6f77501141b3d0f,691666c81a5eeee631c26019,69168372ec2a169ccb805c38,behavior,6abhz1m6xx.csv
45708,,"{""Sound"":""Direct, Literal, Precise, Monotone (sometimes), Formal, Blunt, Analytical, Thoughtful""}",survey-text,4,2.1.0,226718,66bcffc3e6f77501141b3d0f,691666c81a5eeee631c26019,69168372ec2a169ccb805c38,sound,6abhz1m6xx.csv
12818,,"{""Know"":""Yes""}",survey-text,5,2.1.0,239543,66bcffc3e6f77501141b3d0f,691666c81a5eeee631c26019,69168372ec2a169ccb805c38,know,6abhz1m6xx.csv
2305,"<p>Thank you for providing your impressions of autism. You will now be directed to an optional demographic survey. Please answer the survey questions if you feel comfortable doing so. After seeing the survey, you will be able to end the study.</p>",0,html-button-response,6,2.1.0,241850,66bcffc3e6f77501141b3d0f,691666c81a5eeee631c26019,69168372ec2a169ccb805c38,,6abhz1m6xx.csv
27360,,"{""understood"":true,""age"":37,""gender"":""Male"",""ethnicity"":""Hispanic"",""enjoy"":""Average study"",""payment"":""The payment was fair"",""comments"":""Great Study, hope to do more in the future."",""question1"":null}",survey,7,3.0.0,269339,66bcffc3e6f77501141b3d0f,691666c81a5eeee631c26019,69168372ec2a169ccb805c38,,6abhz1m6xx.csv
4074,"
        <div style=""font-size: 16px; text-align: center; margin-top: 25px; margin-right: 100px; margin-left: 100px; margin-bottom: 25px;"">
            <img src=""./image/SUSig_2color_Stree_Left.png"" alt=""Stanford Logo"" style=""max-width: 500px; margin-bottom: 20px;"">
            <h3>DESCRIPTION</h3>
            <p>You are invited to participate in a research study. It’s general purpose is to understand what associations people hold with Autism Spectrum Condition. In this study, we will ask you a four questions about your broad impressions of Autism. Following this, you will be asked to complete an optional demographic survey. Participation in this research is voluntary, and you are free to withdraw your consent at any time.</p>
            <h3>TIME INVOLVEMENT</h3> 
            <p>Your participation will take approximately 4 minutes.</p>
            <h3>PAYMENT</h3> 
            <p>You will be paid at the posted rate.</p>
            <h3>PRIVACY AND CONFIDENTIALITY</h3> 
            <p>The risks associated with this study are minimal. This judgment is based on a large body of experience with the same or similar procedures with people of similar ages, sex, origins, etc. Study data will be stored securely, in compliance with Stanford University standards, minimizing the risk of confidentiality breach. Your individual privacy will be maintained during the research and in all published and written data resulting from the study.</p>
            <h3>CONTACT INFORMATION</h3>
            <p>If you have any questions, concerns or complaints about this research study, its procedures, risks and benefits, you should contact the Protocol Director, Grace Brown, at (616) 498-8188. If you are not satisfied with how this study is being conducted, or if you have any concerns, complaints, or general questions about the research or your rights as a participant, please contact the Stanford Institutional Review Board (IRB) to speak to someone independent of the research team at (650) 723-2480 or toll free at 1-866-680-2906. You can also write to the Stanford IRB, Stanford University, 1705 El Camino Real, Palo Alto, CA 94306 USA.</p> 
            <h3>WAIVER OF DOCUMENTATION</h3>
            <p>If you agree to participate in this research, please click the 'Continue' button.</p>
        </div>",0,html-button-response,0,2.1.0,4084,67722f8e3a4f08a288a1f640,691666c81a5eeee631c26019,69166e023d167430834ba189,,7prd3vul67.csv
9295,"<p>Autism has received increased public attention in recent years, leading to a wide range of discussions about what it means to be autistic. To better understand how people in the United States think and talk about autism, we will ask you four short questions about your general impressions of the condition. Following this, you have the opportunity to complete an optional demographic survey. Your responses will help us learn more about how autism is perceived and discussed in everyday life.<br><br>If you understand the instructions and are ready to begin, click ‘Continue’.</p>",0,html-button-response,1,2.1.0,13383,67722f8e3a4f08a288a1f640,691666c81a5eeee631c26019,69166e023d167430834ba189,,7prd3vul67.csv
63448,,"{""Person"":""withdrawn, hyper-focused, non verbal, socially awkward, anxiety, fixations""}",survey-text,2,2.1.0,76848,67722f8e3a4f08a288a1f640,691666c81a5eeee631c26019,69166e023d167430834ba189,person,7prd3vul67.csv
82384,,"{""Behavior"":""Hyper-focused, unyielding, repetitive, obsessive, socially anxious""}",survey-text,3,2.1.0,159238,67722f8e3a4f08a288a1f640,691666c81a5eeee631c26019,69166e023d167430834ba189,behavior,7prd3vul67.csv
43669,,"{""Sound"":""Sometimes monotonous, quiet, loud, speaks fast, speaks slow""}",survey-text,4,2.1.0,202917,67722f8e3a4f08a288a1f640,691666c81a5eeee631c26019,69166e023d167430834ba189,sound,7prd3vul67.csv
6185,,"{""Know"":""Yes""}",survey-text,5,2.1.0,209141,67722f8e3a4f08a288a1f640,691666c81a5eeee631c26019,69166e023d167430834ba189,know,7prd3vul67.csv
1911,"<p>Thank you for providing your impressions of autism. You will now be directed to an optional demographic survey. Please answer the survey questions if you feel comfortable doing so. After seeing the survey, you will be able to end the study.</p>",0,html-button-response,6,2.1.0,211057,67722f8e3a4f08a288a1f640,691666c81a5eeee631c26019,69166e023d167430834ba189,,7prd3vul67.csv
21035,,"{""understood"":true,""age"":58,""gender"":""Female"",""ethnicity"":""Caucasian"",""enjoy"":""Average study"",""payment"":""The payment was fair"",""question1"":null,""comments"":null}",survey,7,3.0.0,232271,67722f8e3a4f08a288a1f640,691666c81a5eeee631c26019,69166e023d167430834ba189,,7prd3vul67.csv
2732,"
        <div style=""font-size: 16px; text-align: center; margin-top: 25px; margin-right: 100px; margin-left: 100px; margin-bottom: 25px;"">
            <img src=""./image/SUSig_2color_Stree_Left.png"" alt=""Stanford Logo"" style=""max-width: 500px; margin-bottom: 20px;"">
            <h3>DESCRIPTION</h3>
            <p>You are invited to participate in a research study. It’s general purpose is to understand what associations people hold with Autism Spectrum Condition. In this study, we will ask you a four questions about your broad impressions of Autism. Following this, you will be asked to complete an optional demographic survey. Participation in this research is voluntary, and you are free to withdraw your consent at any time.</p>
            <h3>TIME INVOLVEMENT</h3> 
            <p>Your participation will take approximately 4 minutes.</p>
            <h3>PAYMENT</h3> 
            <p>You will be paid at the posted rate.</p>
            <h3>PRIVACY AND CONFIDENTIALITY</h3> 
            <p>The risks associated with this study are minimal. This judgment is based on a large body of experience with the same or similar procedures with people of similar ages, sex, origins, etc. Study data will be stored securely, in compliance with Stanford University standards, minimizing the risk of confidentiality breach. Your individual privacy will be maintained during the research and in all published and written data resulting from the study.</p>
            <h3>CONTACT INFORMATION</h3>
            <p>If you have any questions, concerns or complaints about this research study, its procedures, risks and benefits, you should contact the Protocol Director, Grace Brown, at (616) 498-8188. If you are not satisfied with how this study is being conducted, or if you have any concerns, complaints, or general questions about the research or your rights as a participant, please contact the Stanford Institutional Review Board (IRB) to speak to someone independent of the research team at (650) 723-2480 or toll free at 1-866-680-2906. You can also write to the Stanford IRB, Stanford University, 1705 El Camino Real, Palo Alto, CA 94306 USA.</p> 
            <h3>WAIVER OF DOCUMENTATION</h3>
            <p>If you agree to participate in this research, please click the 'Continue' button.</p>
        </div>",0,html-button-response,0,2.1.0,2755,615351cf254ed1f941d06e61,691666c81a5eeee631c26019,69166d8cf4c2d4e3f0c4a788,,7vpquabkkc.csv
10307,"<p>Autism has received increased public attention in recent years, leading to a wide range of discussions about what it means to be autistic. To better understand how people in the United States think and talk about autism, we will ask you four short questions about your general impressions of the condition. Following this, you have the opportunity to complete an optional demographic survey. Your responses will help us learn more about how autism is perceived and discussed in everyday life.<br><br>If you understand the instructions and are ready to begin, click ‘Continue’.</p>",0,html-button-response,1,2.1.0,13064,615351cf254ed1f941d06e61,691666c81a5eeee631c26019,69166d8cf4c2d4e3f0c4a788,,7vpquabkkc.csv
56158,,"{""Person"":""poor social skills, behavioral issues, hidden talents, fixations""}",survey-text,2,2.1.0,69251,615351cf254ed1f941d06e61,691666c81a5eeee631c26019,69166d8cf4c2d4e3f0c4a788,person,7vpquabkkc.csv
58723,,"{""Behavior"":""erratic, loud, stressed, triggered, uncomfortable""}",survey-text,3,2.1.0,127981,615351cf254ed1f941d06e61,691666c81a5eeee631c26019,69166d8cf4c2d4e3f0c4a788,behavior,7vpquabkkc.csv
43852,,"{""Sound"":""nonverbal, no different than any other person""}",survey-text,4,2.1.0,171839,615351cf254ed1f941d06e61,691666c81a5eeee631c26019,69166d8cf4c2d4e3f0c4a788,sound,7vpquabkkc.csv
6914,,"{""Know"":""yes""}",survey-text,5,2.1.0,178784,615351cf254ed1f941d06e61,691666c81a5eeee631c26019,69166d8cf4c2d4e3f0c4a788,know,7vpquabkkc.csv
4469,"<p>Thank you for providing your impressions of autism. You will now be directed to an optional demographic survey. Please answer the survey questions if you feel comfortable doing so. After seeing the survey, you will be able to end the study.</p>",0,html-button-response,6,2.1.0,183256,615351cf254ed1f941d06e61,691666c81a5eeee631c26019,69166d8cf4c2d4e3f0c4a788,,7vpquabkkc.csv
18369,,"{""understood"":true,""age"":26,""gender"":""Male"",""ethnicity"":""white"",""enjoy"":""Average study"",""payment"":""The payment was fair"",""comments"":""none"",""question1"":null}",survey,7,3.0.0,201766,615351cf254ed1f941d06e61,691666c81a5eeee631c26019,69166d8cf4c2d4e3f0c4a788,,7vpquabkkc.csv
5440,"
        <div style=""font-size: 16px; text-align: center; margin-top: 25px; margin-right: 100px; margin-left: 100px; margin-bottom: 25px;"">
            <img src=""./image/SUSig_2color_Stree_Left.png"" alt=""Stanford Logo"" style=""max-width: 500px; margin-bottom: 20px;"">
            <h3>DESCRIPTION</h3>
            <p>You are invited to participate in a research study. It’s general purpose is to understand what associations people hold with Autism Spectrum Condition. In this study, we will ask you a four questions about your broad impressions of Autism. Following this, you will be asked to complete an optional demographic survey. Participation in this research is voluntary, and you are free to withdraw your consent at any time.</p>
            <h3>TIME INVOLVEMENT</h3> 
            <p>Your participation will take approximately 4 minutes.</p>
            <h3>PAYMENT</h3> 
            <p>You will be paid at the posted rate.</p>
            <h3>PRIVACY AND CONFIDENTIALITY</h3> 
            <p>The risks associated with this study are minimal. This judgment is based on a large body of experience with the same or similar procedures with people of similar ages, sex, origins, etc. Study data will be stored securely, in compliance with Stanford University standards, minimizing the risk of confidentiality breach. Your individual privacy will be maintained during the research and in all published and written data resulting from the study.</p>
            <h3>CONTACT INFORMATION</h3>
            <p>If you have any questions, concerns or complaints about this research study, its procedures, risks and benefits, you should contact the Protocol Director, Grace Brown, at (616) 498-8188. If you are not satisfied with how this study is being conducted, or if you have any concerns, complaints, or general questions about the research or your rights as a participant, please contact the Stanford Institutional Review Board (IRB) to speak to someone independent of the research team at (650) 723-2480 or toll free at 1-866-680-2906. You can also write to the Stanford IRB, Stanford University, 1705 El Camino Real, Palo Alto, CA 94306 USA.</p> 
            <h3>WAIVER OF DOCUMENTATION</h3>
            <p>If you agree to participate in this research, please click the 'Continue' button.</p>
        </div>",0,html-button-response,0,2.1.0,5493,60e8a63f733f423be3da1846,691666c81a5eeee631c26019,69166f87ae8084560b25c6e3,,86bmq14poq.csv
19027,"<p>Autism has received increased public attention in recent years, leading to a wide range of discussions about what it means to be autistic. To better understand how people in the United States think and talk about autism, we will ask you four short questions about your general impressions of the condition. Following this, you have the opportunity to complete an optional demographic survey. Your responses will help us learn more about how autism is perceived and discussed in everyday life.<br><br>If you understand the instructions and are ready to begin, click ‘Continue’.</p>",0,html-button-response,1,2.1.0,24533,60e8a63f733f423be3da1846,691666c81a5eeee631c26019,69166f87ae8084560b25c6e3,,86bmq14poq.csv
20251,,"{""Person"":""unique, creative, honest, loving, kind, funny, happy""}",survey-text,2,2.1.0,44831,60e8a63f733f423be3da1846,691666c81a5eeee631c26019,69166f87ae8084560b25c6e3,person,86bmq14poq.csv
91740,,"{""Behavior"":""compulsive, factly, literal, honestly, happily""}",survey-text,3,2.1.0,136589,60e8a63f733f423be3da1846,691666c81a5eeee631c26019,69166f87ae8084560b25c6e3,behavior,86bmq14poq.csv
33085,,"{""Sound"":""normal, loud, quiet, shy, nice""}",survey-text,4,2.1.0,169701,60e8a63f733f423be3da1846,691666c81a5eeee631c26019,69166f87ae8084560b25c6e3,sound,86bmq14poq.csv
6970,,"{""Know"":""yes my nephew""}",survey-text,5,2.1.0,176709,60e8a63f733f423be3da1846,691666c81a5eeee631c26019,69166f87ae8084560b25c6e3,know,86bmq14poq.csv
4205,"<p>Thank you for providing your impressions of autism. You will now be directed to an optional demographic survey. Please answer the survey questions if you feel comfortable doing so. After seeing the survey, you will be able to end the study.</p>",0,html-button-response,6,2.1.0,180919,60e8a63f733f423be3da1846,691666c81a5eeee631c26019,69166f87ae8084560b25c6e3,,86bmq14poq.csv
24588,,"{""understood"":true,""age"":35,""gender"":""Female"",""ethnicity"":""white"",""enjoy"":""Average study"",""payment"":""The payment was fair"",""comments"":""none"",""question1"":null}",survey,7,3.0.0,205901,60e8a63f733f423be3da1846,691666c81a5eeee631c26019,69166f87ae8084560b25c6e3,,86bmq14poq.csv
12416,"
        <div style=""font-size: 16px; text-align: center; margin-top: 25px; margin-right: 100px; margin-left: 100px; margin-bottom: 25px;"">
            <img src=""./image/SUSig_2color_Stree_Left.png"" alt=""Stanford Logo"" style=""max-width: 500px; margin-bottom: 20px;"">
            <h3>DESCRIPTION</h3>
            <p>You are invited to participate in a research study. It’s general purpose is to understand what associations people hold with Autism Spectrum Condition. In this study, we will ask you a four questions about your broad impressions of Autism. Following this, you will be asked to complete an optional demographic survey. Participation in this research is voluntary, and you are free to withdraw your consent at any time.</p>
            <h3>TIME INVOLVEMENT</h3> 
            <p>Your participation will take approximately 4 minutes.</p>
            <h3>PAYMENT</h3> 
            <p>You will be paid at the posted rate.</p>
            <h3>PRIVACY AND CONFIDENTIALITY</h3> 
            <p>The risks associated with this study are minimal. This judgment is based on a large body of experience with the same or similar procedures with people of similar ages, sex, origins, etc. Study data will be stored securely, in compliance with Stanford University standards, minimizing the risk of confidentiality breach. Your individual privacy will be maintained during the research and in all published and written data resulting from the study.</p>
            <h3>CONTACT INFORMATION</h3>
            <p>If you have any questions, concerns or complaints about this research study, its procedures, risks and benefits, you should contact the Protocol Director, Grace Brown, at (616) 498-8188. If you are not satisfied with how this study is being conducted, or if you have any concerns, complaints, or general questions about the research or your rights as a participant, please contact the Stanford Institutional Review Board (IRB) to speak to someone independent of the research team at (650) 723-2480 or toll free at 1-866-680-2906. You can also write to the Stanford IRB, Stanford University, 1705 El Camino Real, Palo Alto, CA 94306 USA.</p> 
            <h3>WAIVER OF DOCUMENTATION</h3>
            <p>If you agree to participate in this research, please click the 'Continue' button.</p>
        </div>",0,html-button-response,0,2.1.0,12424,6626b05a15db572c21948eb7,691666c81a5eeee631c26019,69166f750f7d44c1a5b2c71c,,86zgk22h35.csv
16173,"<p>Autism has received increased public attention in recent years, leading to a wide range of discussions about what it means to be autistic. To better understand how people in the United States think and talk about autism, we will ask you four short questions about your general impressions of the condition. Following this, you have the opportunity to complete an optional demographic survey. Your responses will help us learn more about how autism is perceived and discussed in everyday life.<br><br>If you understand the instructions and are ready to begin, click ‘Continue’.</p>",0,html-button-response,1,2.1.0,28599,6626b05a15db572c21948eb7,691666c81a5eeee631c26019,69166f750f7d44c1a5b2c71c,,86zgk22h35.csv
31201,,"{""Person"":""anxious, social problems, smart, quiet, nervous""}",survey-text,2,2.1.0,59817,6626b05a15db572c21948eb7,691666c81a5eeee631c26019,69166f750f7d44c1a5b2c71c,person,86zgk22h35.csv
57929,,"{""Behavior"":""quiet, non-conforming, nervous, jerky movement, staring""}",survey-text,3,2.1.0,117755,6626b05a15db572c21948eb7,691666c81a5eeee631c26019,69166f750f7d44c1a5b2c71c,behavior,86zgk22h35.csv
85458,,"{""Sound"":""normal, hesitant, quiet, reserved, friendly ""}",survey-text,4,2.1.0,203222,6626b05a15db572c21948eb7,691666c81a5eeee631c26019,69166f750f7d44c1a5b2c71c,sound,86zgk22h35.csv
6104,,"{""Know"":""No""}",survey-text,5,2.1.0,209338,6626b05a15db572c21948eb7,691666c81a5eeee631c26019,69166f750f7d44c1a5b2c71c,know,86zgk22h35.csv
5887,"<p>Thank you for providing your impressions of autism. You will now be directed to an optional demographic survey. Please answer the survey questions if you feel comfortable doing so. After seeing the survey, you will be able to end the study.</p>",0,html-button-response,6,2.1.0,215228,6626b05a15db572c21948eb7,691666c81a5eeee631c26019,69166f750f7d44c1a5b2c71c,,86zgk22h35.csv
101853,,"{""understood"":true,""age"":75,""gender"":""Female"",""ethnicity"":""Mixed ethnicity"",""enjoy"":""Worse than average study"",""payment"":""The payment was fair"",""comments"":""I wasn't expecting what I got, and I didn't have much to share about the impressions requested. I hope my contributions were helpful."",""question1"":null}",survey,7,3.0.0,317171,6626b05a15db572c21948eb7,691666c81a5eeee631c26019,69166f750f7d44c1a5b2c71c,,86zgk22h35.csv
11729,"
        <div style=""font-size: 16px; text-align: center; margin-top: 25px; margin-right: 100px; margin-left: 100px; margin-bottom: 25px;"">
            <img src=""./image/SUSig_2color_Stree_Left.png"" alt=""Stanford Logo"" style=""max-width: 500px; margin-bottom: 20px;"">
            <h3>DESCRIPTION</h3>
            <p>You are invited to participate in a research study. It’s general purpose is to understand what associations people hold with Autism Spectrum Condition. In this study, we will ask you a four questions about your broad impressions of Autism. Following this, you will be asked to complete an optional demographic survey. Participation in this research is voluntary, and you are free to withdraw your consent at any time.</p>
            <h3>TIME INVOLVEMENT</h3> 
            <p>Your participation will take approximately 4 minutes.</p>
            <h3>PAYMENT</h3> 
            <p>You will be paid at the posted rate.</p>
            <h3>PRIVACY AND CONFIDENTIALITY</h3> 
