rt,stimulus,response,trial_type,trial_index,plugin_version,time_elapsed,subject_id,study_id,session_id,question_type,source_file,response_1,response_2,response_3,response_4,response_5,response_6,response_7,response_8,response_9,response_10,response_11,response_12
32199,,"{""Person"":""Misunderstood, lovely, sharp, different, friendly""}",survey-text,2,2.1.0,39374,674f97fef70c3dd15d138c3e,691666c81a5eeee631c26019,6916907e6ae822f72a466326,person,0ehz4rm3z0.csv,Misunderstood,lovely,sharp,different,friendly,,,,,,,
35177,,"{""Behavior"":""overstimulated, truthful, reactive, sweet, friendly""}",survey-text,3,2.1.0,74552,674f97fef70c3dd15d138c3e,691666c81a5eeee631c26019,6916907e6ae822f72a466326,behavior,0ehz4rm3z0.csv,overstimulated,truthful,reactive,sweet,friendly,,,,,,,
53989,,"{""Sound"":""inquisitive, innocent, trusting, friendly, joyful""}",survey-text,4,2.1.0,128543,674f97fef70c3dd15d138c3e,691666c81a5eeee631c26019,6916907e6ae822f72a466326,sound,0ehz4rm3z0.csv,inquisitive,innocent,trusting,friendly,joyful,,,,,,,
4590,,"{""Know"":""Yes""}",survey-text,5,2.1.0,133135,674f97fef70c3dd15d138c3e,691666c81a5eeee631c26019,6916907e6ae822f72a466326,know,0ehz4rm3z0.csv,Yes,,,,,,,,,,,
65960,,"{""Person"":""Anti-social, introspective, sensitive, self-focused, talented""}",survey-text,2,2.1.0,76359,67ab7ed4c126306d2899115a,691666c81a5eeee631c26019,69166cd91c30fb1fced9c16c,person,161u6117en.csv,Anti-social,introspective,sensitive,self-focused,talented,,,,,,,
66620,,"{""Behavior"":""quiet, touchy, shy, irritable, easily agitated""}",survey-text,3,2.1.0,142981,67ab7ed4c126306d2899115a,691666c81a5eeee631c26019,69166cd91c30fb1fced9c16c,behavior,161u6117en.csv,quiet,touchy,shy,irritable,easily agitated,,,,,,,
67783,,"{""Sound"":""quiet, non-verbal sometimes, loud sometimes, sounds like anyone else, long vowels""}",survey-text,4,2.1.0,210767,67ab7ed4c126306d2899115a,691666c81a5eeee631c26019,69166cd91c30fb1fced9c16c,sound,161u6117en.csv,quiet,non-verbal sometimes,loud sometimes,sounds like anyone else,long vowels,,,,,,,
3757,,"{""Know"":""yes""}",survey-text,5,2.1.0,214530,67ab7ed4c126306d2899115a,691666c81a5eeee631c26019,69166cd91c30fb1fced9c16c,know,161u6117en.csv,yes,,,,,,,,,,,
421591,,"{""Person"":""Supportive, detail-focused, honest, sensory-sensitive, thoughtful, pattern-oriented, unique, perceptive, loyal, intuitive""}",survey-text,2,2.1.0,792038,583b397f54686200010f1d20,691666c81a5eeee631c26019,691670cf124598dcbf24d210,person,1k1xhx2t1j.csv,Supportive,detail-focused,honest,sensory-sensitive,thoughtful,pattern-oriented,unique,perceptive,loyal,intuitive,,
35375,,"{""Behavior"":""Focused, literal, routine-oriented, direct, overwhelmed, observant, quiet, expressive-in-own-way, methodical, earnest""}",survey-text,3,2.1.0,827415,583b397f54686200010f1d20,691666c81a5eeee631c26019,691670cf124598dcbf24d210,behavior,1k1xhx2t1j.csv,Focused,literal,routine-oriented,direct,overwhelmed,observant,quiet,expressive-in-own-way,methodical,earnest,,
30944,,"{""Sound"":""Monotone, soft-spoken, flat-affect, precise, scripted, echoing, rhythmic, uneven, quiet, deliberate""}",survey-text,4,2.1.0,858360,583b397f54686200010f1d20,691666c81a5eeee631c26019,691670cf124598dcbf24d210,sound,1k1xhx2t1j.csv,Monotone,soft-spoken,flat-affect,precise,scripted,echoing,rhythmic,uneven,quiet,deliberate,,
13098,,"{""Know"":""No""}",survey-text,5,2.1.0,871462,583b397f54686200010f1d20,691666c81a5eeee631c26019,691670cf124598dcbf24d210,know,1k1xhx2t1j.csv,No,,,,,,,,,,,
171618,,"{""Person"":""complex, patterns, neurodivergent, misunderstood, ostracized""}",survey-text,2,2.1.0,233589,60fdb73b85f276ed91d84eb9,691666c81a5eeee631c26019,69166cfbbaa4d4933182f1dd,person,1p4o6dwfvc.csv,complex,patterns,neurodivergent,misunderstood,ostracized,,,,,,,
158398,,"{""Behavior"":""reserved, fluid, blunt, introverted, alert""}",survey-text,3,2.1.0,391985,60fdb73b85f276ed91d84eb9,691666c81a5eeee631c26019,69166cfbbaa4d4933182f1dd,behavior,1p4o6dwfvc.csv,reserved,fluid,blunt,introverted,alert,,,,,,,
88284,,"{""Sound"":""monotone, calm, intelligent, blunt, awkward, animated""}",survey-text,4,2.1.0,480268,60fdb73b85f276ed91d84eb9,691666c81a5eeee631c26019,69166cfbbaa4d4933182f1dd,sound,1p4o6dwfvc.csv,monotone,calm,intelligent,blunt,awkward,animated,,,,,,
9128,,"{""Know"":""Yes!""}",survey-text,5,2.1.0,489401,60fdb73b85f276ed91d84eb9,691666c81a5eeee631c26019,69166cfbbaa4d4933182f1dd,know,1p4o6dwfvc.csv,Yes!,,,,,,,,,,,
78796,,"{""Person"":""An autistic person likes predictability and they can be sensitive to one or more of their senses. They also can be fixated on things that interest them and they can find it difficult to socialize with others.""}",survey-text,2,2.1.0,113560,661c5ee0d0e14a2e13e40374,691666c81a5eeee631c26019,691688e3f85eb185becf0879,person,25a7nmhw1q.csv,An autistic person likes predictability and they can be sensitive to one or more of their senses. They also can be fixated on things that interest them and they can find it difficult to socialize with others.,,,,,,,,,,,
54972,,"{""Behavior"":""The behavior varies. There are \""high functioning\"" people with autism. ""}",survey-text,3,2.1.0,168536,661c5ee0d0e14a2e13e40374,691666c81a5eeee631c26019,691688e3f85eb185becf0879,behavior,25a7nmhw1q.csv,"The behavior varies. There are ""high functioning"" people with autism. ",,,,,,,,,,,
72535,,"{""Sound"":""Normal, but they might express enthusiasm when they talk about something that they're fixated on, they can also be quiet and indicate they do not want to socialize.""}",survey-text,4,2.1.0,241073,661c5ee0d0e14a2e13e40374,691666c81a5eeee631c26019,691688e3f85eb185becf0879,sound,25a7nmhw1q.csv,Normal,but they might express enthusiasm when they talk about something that they're fixated on,they can also be quiet and indicate they do not want to socialize.,,,,,,,,,
8172,,"{""Know"":""yes""}",survey-text,5,2.1.0,249252,661c5ee0d0e14a2e13e40374,691666c81a5eeee631c26019,691688e3f85eb185becf0879,know,25a7nmhw1q.csv,yes,,,,,,,,,,,
46547,,"{""Person"":""socially awkward, sensitive, smart, hyperfocus, unaware of social expectations""}",survey-text,2,2.1.0,52303,66199822c723a66ae0d5fc24,691666c81a5eeee631c26019,6916708f4dbcd0090cd9a283,person,25zrbe9kht.csv,socially awkward,sensitive,smart,hyperfocus,unaware of social expectations,,,,,,,
23437,,"{""Behavior"":""awkward, strange, unique, loud, different""}",survey-text,3,2.1.0,75741,66199822c723a66ae0d5fc24,691666c81a5eeee631c26019,6916708f4dbcd0090cd9a283,behavior,25zrbe9kht.csv,awkward,strange,unique,loud,different,,,,,,,
24638,,"{""Sound"":""regular, loud, normal, slow speaking, fast speaking""}",survey-text,4,2.1.0,100380,66199822c723a66ae0d5fc24,691666c81a5eeee631c26019,6916708f4dbcd0090cd9a283,sound,25zrbe9kht.csv,regular,loud,normal,slow speaking,fast speaking,,,,,,,
3481,,"{""Know"":""yes""}",survey-text,5,2.1.0,103865,66199822c723a66ae0d5fc24,691666c81a5eeee631c26019,6916708f4dbcd0090cd9a283,know,25zrbe9kht.csv,yes,,,,,,,,,,,
56924,,"{""Person"":""Intelligent, open-minded, anxious, eccentric, reserved""}",survey-text,2,2.1.0,69952,5f23ff398626c51fdd6c3fb5,691666c81a5eeee631c26019,6916733b7a4efeab141a8f0f,person,2jo4bffyux.csv,Intelligent,open-minded,anxious,eccentric,reserved,,,,,,,
82170,,"{""Behavior"":""anxious, impulsive, disorganized, emotionless, frustrated a lot""}",survey-text,3,2.1.0,152131,5f23ff398626c51fdd6c3fb5,691666c81a5eeee631c26019,6916733b7a4efeab141a8f0f,behavior,2jo4bffyux.csv,anxious,impulsive,disorganized,emotionless,frustrated a lot,,,,,,,
48341,,"{""Sound"":""worried, afraid, uncertain, quiet, pessimistic""}",survey-text,4,2.1.0,200480,5f23ff398626c51fdd6c3fb5,691666c81a5eeee631c26019,6916733b7a4efeab141a8f0f,sound,2jo4bffyux.csv,worried,afraid,uncertain,quiet,pessimistic,,,,,,,
4367,,"{""Know"":""Yes""}",survey-text,5,2.1.0,204858,5f23ff398626c51fdd6c3fb5,691666c81a5eeee631c26019,6916733b7a4efeab141a8f0f,know,2jo4bffyux.csv,Yes,,,,,,,,,,,
62876,,"{""Person"":""Divergent, Needs, Specialized, Ostracized, One-way,  ""}",survey-text,2,2.1.0,70063,63f8ce09e792bf06684febec,691666c81a5eeee631c26019,69166d91c3ead1ae658fd224,person,3fvttzh7qg.csv,Divergent,Needs,Specialized,Ostracized,One-way,,,,,,,
39919,,"{""Behavior"":""Different, Reserved, Impulsive, Uniformed, Routined""}",survey-text,3,2.1.0,109986,63f8ce09e792bf06684febec,691666c81a5eeee631c26019,69166d91c3ead1ae658fd224,behavior,3fvttzh7qg.csv,Different,Reserved,Impulsive,Uniformed,Routined,,,,,,,
52651,,"{""Sound"":""Monotone, Emotionless, Low, High, Childish""}",survey-text,4,2.1.0,162640,63f8ce09e792bf06684febec,691666c81a5eeee631c26019,69166d91c3ead1ae658fd224,sound,3fvttzh7qg.csv,Monotone,Emotionless,Low,High,Childish,,,,,,,
15469,,"{""Know"":""Family members""}",survey-text,5,2.1.0,178114,63f8ce09e792bf06684febec,691666c81a5eeee631c26019,69166d91c3ead1ae658fd224,know,3fvttzh7qg.csv,Family members,,,,,,,,,,,
46018,,"{""Person"":""quirky, overstimulated, awkward, neurodivergent, strange, reserved""}",survey-text,2,2.1.0,64789,5b8dbff00c740e00019d861a,691666c81a5eeee631c26019,69166e0643556eb4a51fbf45,person,3z0mw6v94n.csv,quirky,overstimulated,awkward,neurodivergent,strange,reserved,,,,,,
51125,,"{""Behavior"":""reserved, withdrawn, socially awkward, focused, unaware""}",survey-text,3,2.1.0,115923,5b8dbff00c740e00019d861a,691666c81a5eeee631c26019,69166e0643556eb4a51fbf45,behavior,3z0mw6v94n.csv,reserved,withdrawn,socially awkward,focused,unaware,,,,,,,
104354,,"{""Sound"":""stiff, flat, either too quiet or too loud""}",survey-text,4,2.1.0,220284,5b8dbff00c740e00019d861a,691666c81a5eeee631c26019,69166e0643556eb4a51fbf45,sound,3z0mw6v94n.csv,stiff,flat,either too quiet or too loud,,,,,,,,,
28869,,"{""Know"":""My brother isn't diagnosed but it's pretty obvious he is. I have autistic students in my class.""}",survey-text,5,2.1.0,249182,5b8dbff00c740e00019d861a,691666c81a5eeee631c26019,69166e0643556eb4a51fbf45,know,3z0mw6v94n.csv,My brother isn't diagnosed but it's pretty obvious he is. I have autistic students in my class.,,,,,,,,,,,
20314,,"{""Person"":""bored, annoyed, disabled, annoying, frustrating""}",survey-text,2,2.1.0,64417,60b3e6ad448226548d21fc4d,691666c81a5eeee631c26019,69166f59ae135fb419b22f8f,person,4h29ca8fyg.csv,bored,annoyed,disabled,annoying,frustrating,,,,,,,
30721,,"{""Behavior"":""pest, annoying, irritating, pain, bratty""}",survey-text,3,2.1.0,95140,60b3e6ad448226548d21fc4d,691666c81a5eeee631c26019,69166f59ae135fb419b22f8f,behavior,4h29ca8fyg.csv,pest,annoying,irritating,pain,bratty,,,,,,,
26413,,"{""Sound"":""monotone, silly, boring, annoying, creepy""}",survey-text,4,2.1.0,121555,60b3e6ad448226548d21fc4d,691666c81a5eeee631c26019,69166f59ae135fb419b22f8f,sound,4h29ca8fyg.csv,monotone,silly,boring,annoying,creepy,,,,,,,
4365,,"{""Know"":""no""}",survey-text,5,2.1.0,125927,60b3e6ad448226548d21fc4d,691666c81a5eeee631c26019,69166f59ae135fb419b22f8f,know,4h29ca8fyg.csv,no,,,,,,,,,,,
33685,,"{""Person"":""awkward, shy, uncomfortable, difficult, harsh""}",survey-text,2,2.1.0,41862,5e387dba03aa45000bc6e272,691666c81a5eeee631c26019,69166e99c2959904828436ff,person,4nslo46n9w.csv,awkward,shy,uncomfortable,difficult,harsh,,,,,,,
46040,,"{""Behavior"":""focused, resilient, compassionate, creative, honest""}",survey-text,3,2.1.0,87916,5e387dba03aa45000bc6e272,691666c81a5eeee631c26019,69166e99c2959904828436ff,behavior,4nslo46n9w.csv,focused,resilient,compassionate,creative,honest,,,,,,,
72541,,"{""Sound"":""loud, in your face, quirky, sqreachy, repetitive""}",survey-text,4,2.1.0,160475,5e387dba03aa45000bc6e272,691666c81a5eeee631c26019,69166e99c2959904828436ff,sound,4nslo46n9w.csv,loud,in your face,quirky,sqreachy,repetitive,,,,,,,
2889,,"{""Know"":""yes""}",survey-text,5,2.1.0,163398,5e387dba03aa45000bc6e272,691666c81a5eeee631c26019,69166e99c2959904828436ff,know,4nslo46n9w.csv,yes,,,,,,,,,,,
201464,,"{""Person"":""self-centered, quiet, obsessed, solitary, hallucinating""}",survey-text,2,2.1.0,217742,59e62b6277860e0001512e14,691666c81a5eeee631c26019,69167c39b23a3e0e965eec50,person,4qvkaf4798.csv,self-centered,quiet,obsessed,solitary,hallucinating,,,,,,,
117925,,"{""Behavior"":""erratically, weird, repetitive, unpredictably, shyly""}",survey-text,3,2.1.0,335676,59e62b6277860e0001512e14,691666c81a5eeee631c26019,69167c39b23a3e0e965eec50,behavior,4qvkaf4798.csv,erratically,weird,repetitive,unpredictably,shyly,,,,,,,
122748,,"{""Sound"":""tired, bored, moaning, complaining, hurt""}",survey-text,4,2.1.0,458435,59e62b6277860e0001512e14,691666c81a5eeee631c26019,69167c39b23a3e0e965eec50,sound,4qvkaf4798.csv,tired,bored,moaning,complaining,hurt,,,,,,,
43338,,"{""Know"":"" Yes. I know a young man who is autistic.""}",survey-text,5,2.1.0,501786,59e62b6277860e0001512e14,691666c81a5eeee631c26019,69167c39b23a3e0e965eec50,know,4qvkaf4798.csv, Yes. I know a young man who is autistic.,,,,,,,,,,,
111684,,"{""Person"":""sensitive, orderly, orderly, quiet, shy,upset, tantrums, lonley""}",survey-text,2,2.1.0,157008,67838c00a0e049fdf173f9bd,691666c81a5eeee631c26019,691677764628eb27b3778d87,person,5f0jncllt2.csv,sensitive,orderly,orderly,quiet,shy,upset,tantrums,lonley,,,,
51856,,"{""Behavior"":""routines, patterns, avoidant, reserved, cautious""}",survey-text,3,2.1.0,208870,67838c00a0e049fdf173f9bd,691666c81a5eeee631c26019,691677764628eb27b3778d87,behavior,5f0jncllt2.csv,routines,patterns,avoidant,reserved,cautious,,,,,,,
23112,,"{""Sound"":""lisp, rapid, fast, quiet, loud""}",survey-text,4,2.1.0,231988,67838c00a0e049fdf173f9bd,691666c81a5eeee631c26019,691677764628eb27b3778d87,sound,5f0jncllt2.csv,lisp,rapid,fast,quiet,loud,,,,,,,
4784,,"{""Know"":""yes""}",survey-text,5,2.1.0,236778,67838c00a0e049fdf173f9bd,691666c81a5eeee631c26019,691677764628eb27b3778d87,know,5f0jncllt2.csv,yes,,,,,,,,,,,
52850,,"{""Person"":""A person that struggles existing in a neurotypical world. ""}",survey-text,2,2.1.0,73382,6365a371d807016cebfdb16c,691666c81a5eeee631c26019,69166e7d7cb0abbc5a5483a3,person,5n3ukbpmwr.csv,A person that struggles existing in a neurotypical world. ,,,,,,,,,,,
29111,,"{""Behavior"":""Autistic people behave just fine. Neurotypical people are the badly behaved people.""}",survey-text,3,2.1.0,102502,6365a371d807016cebfdb16c,691666c81a5eeee631c26019,69166e7d7cb0abbc5a5483a3,behavior,5n3ukbpmwr.csv,Autistic people behave just fine. Neurotypical people are the badly behaved people.,,,,,,,,,,,
27846,,"{""Sound"":""They sound just like everyone else except they don't lie""}",survey-text,4,2.1.0,130352,6365a371d807016cebfdb16c,691666c81a5eeee631c26019,69166e7d7cb0abbc5a5483a3,sound,5n3ukbpmwr.csv,They sound just like everyone else except they don't lie,,,,,,,,,,,
18330,,"{""Know"":""Yup""}",survey-text,5,2.1.0,148695,6365a371d807016cebfdb16c,691666c81a5eeee631c26019,69166e7d7cb0abbc5a5483a3,know,5n3ukbpmwr.csv,Yup,,,,,,,,,,,
68522,,"{""Person"":""Different, socially awkward, odd, misfit, intelligent, loner, introvert""}",survey-text,2,2.1.0,215303,5a9262251eda410001360b2c,691666c81a5eeee631c26019,69167f3832bbb824254a013f,person,5ormrhgtrd.csv,Different,socially awkward,odd,misfit,intelligent,loner,introvert,,,,,
69998,,"{""Behavior"":""Odd, eccentric, different, weird, slow, passive""}",survey-text,3,2.1.0,285303,5a9262251eda410001360b2c,691666c81a5eeee631c26019,69167f3832bbb824254a013f,behavior,5ormrhgtrd.csv,Odd,eccentric,different,weird,slow,passive,,,,,,
140455,,"{""Sound"":""Quiet, withdrawn, but can also sound like anyone else, slow, anxious, awkward""}",survey-text,4,2.1.0,425759,5a9262251eda410001360b2c,691666c81a5eeee631c26019,69167f3832bbb824254a013f,sound,5ormrhgtrd.csv,Quiet,withdrawn,but can also sound like anyone else,slow,anxious,awkward,,,,,,
20808,,"{""Know"":""I don't personally know anyone diagnosed with autism, but I suspect I have it.""}",survey-text,5,2.1.0,446575,5a9262251eda410001360b2c,691666c81a5eeee631c26019,69167f3832bbb824254a013f,know,5ormrhgtrd.csv,I don't personally know anyone diagnosed with autism,but I suspect I have it.,,,,,,,,,,
21902,,"{""Person"":""Awkward, intelligent, focused, aloof, carefree""}",survey-text,2,2.1.0,30110,6554d04c73158a94d70192dd,691666c81a5eeee631c26019,691675a8c0b5172f08061e6a,person,67op6txxnz.csv,Awkward,intelligent,focused,aloof,carefree,,,,,,,
22520,,"{""Behavior"":""Socially different, high strung, sensitive to light and sound""}",survey-text,3,2.1.0,52631,6554d04c73158a94d70192dd,691666c81a5eeee631c26019,691675a8c0b5172f08061e6a,behavior,67op6txxnz.csv,Socially different,high strung,sensitive to light and sound,,,,,,,,,
20407,,"{""Sound"":""Concise, intelligent, fluent, does not like small talk""}",survey-text,4,2.1.0,73039,6554d04c73158a94d70192dd,691666c81a5eeee631c26019,691675a8c0b5172f08061e6a,sound,67op6txxnz.csv,Concise,intelligent,fluent,does not like small talk,,,,,,,,
14147,,"{""Know"":""Yes. My friends brother and my friends daughter.""}",survey-text,5,2.1.0,87189,6554d04c73158a94d70192dd,691666c81a5eeee631c26019,691675a8c0b5172f08061e6a,know,67op6txxnz.csv,Yes. My friends brother and my friends daughter.,,,,,,,,,,,
114862,,"{""Person"":""Intelligent, Creative, Logical, Detail-oriented, Honest, Passionate, Tenacious, Unique, Caring, Resilient""}",survey-text,2,2.1.0,128547,66bcffc3e6f77501141b3d0f,691666c81a5eeee631c26019,69168372ec2a169ccb805c38,person,6abhz1m6xx.csv,Intelligent,Creative,Logical,Detail-oriented,Honest,Passionate,Tenacious,Unique,Caring,Resilient,,
52458,,"{""Behavior"":""Focused, Detail-oriented, Direct, Routine-seeking, Deep-thinking, Honest, Sensory-sensitive, Analytical, Observant""}",survey-text,3,2.1.0,181007,66bcffc3e6f77501141b3d0f,691666c81a5eeee631c26019,69168372ec2a169ccb805c38,behavior,6abhz1m6xx.csv,Focused,Detail-oriented,Direct,Routine-seeking,Deep-thinking,Honest,Sensory-sensitive,Analytical,Observant,,,
45708,,"{""Sound"":""Direct, Literal, Precise, Monotone (sometimes), Formal, Blunt, Analytical, Thoughtful""}",survey-text,4,2.1.0,226718,66bcffc3e6f77501141b3d0f,691666c81a5eeee631c26019,69168372ec2a169ccb805c38,sound,6abhz1m6xx.csv,Direct,Literal,Precise,Monotone (sometimes),Formal,Blunt,Analytical,Thoughtful,,,,
12818,,"{""Know"":""Yes""}",survey-text,5,2.1.0,239543,66bcffc3e6f77501141b3d0f,691666c81a5eeee631c26019,69168372ec2a169ccb805c38,know,6abhz1m6xx.csv,Yes,,,,,,,,,,,
63448,,"{""Person"":""withdrawn, hyper-focused, non verbal, socially awkward, anxiety, fixations""}",survey-text,2,2.1.0,76848,67722f8e3a4f08a288a1f640,691666c81a5eeee631c26019,69166e023d167430834ba189,person,7prd3vul67.csv,withdrawn,hyper-focused,non verbal,socially awkward,anxiety,fixations,,,,,,
82384,,"{""Behavior"":""Hyper-focused, unyielding, repetitive, obsessive, socially anxious""}",survey-text,3,2.1.0,159238,67722f8e3a4f08a288a1f640,691666c81a5eeee631c26019,69166e023d167430834ba189,behavior,7prd3vul67.csv,Hyper-focused,unyielding,repetitive,obsessive,socially anxious,,,,,,,
43669,,"{""Sound"":""Sometimes monotonous, quiet, loud, speaks fast, speaks slow""}",survey-text,4,2.1.0,202917,67722f8e3a4f08a288a1f640,691666c81a5eeee631c26019,69166e023d167430834ba189,sound,7prd3vul67.csv,Sometimes monotonous,quiet,loud,speaks fast,speaks slow,,,,,,,
6185,,"{""Know"":""Yes""}",survey-text,5,2.1.0,209141,67722f8e3a4f08a288a1f640,691666c81a5eeee631c26019,69166e023d167430834ba189,know,7prd3vul67.csv,Yes,,,,,,,,,,,
56158,,"{""Person"":""poor social skills, behavioral issues, hidden talents, fixations""}",survey-text,2,2.1.0,69251,615351cf254ed1f941d06e61,691666c81a5eeee631c26019,69166d8cf4c2d4e3f0c4a788,person,7vpquabkkc.csv,poor social skills,behavioral issues,hidden talents,fixations,,,,,,,,
58723,,"{""Behavior"":""erratic, loud, stressed, triggered, uncomfortable""}",survey-text,3,2.1.0,127981,615351cf254ed1f941d06e61,691666c81a5eeee631c26019,69166d8cf4c2d4e3f0c4a788,behavior,7vpquabkkc.csv,erratic,loud,stressed,triggered,uncomfortable,,,,,,,
43852,,"{""Sound"":""nonverbal, no different than any other person""}",survey-text,4,2.1.0,171839,615351cf254ed1f941d06e61,691666c81a5eeee631c26019,69166d8cf4c2d4e3f0c4a788,sound,7vpquabkkc.csv,nonverbal,no different than any other person,,,,,,,,,,
6914,,"{""Know"":""yes""}",survey-text,5,2.1.0,178784,615351cf254ed1f941d06e61,691666c81a5eeee631c26019,69166d8cf4c2d4e3f0c4a788,know,7vpquabkkc.csv,yes,,,,,,,,,,,
20251,,"{""Person"":""unique, creative, honest, loving, kind, funny, happy""}",survey-text,2,2.1.0,44831,60e8a63f733f423be3da1846,691666c81a5eeee631c26019,69166f87ae8084560b25c6e3,person,86bmq14poq.csv,unique,creative,honest,loving,kind,funny,happy,,,,,
91740,,"{""Behavior"":""compulsive, factly, literal, honestly, happily""}",survey-text,3,2.1.0,136589,60e8a63f733f423be3da1846,691666c81a5eeee631c26019,69166f87ae8084560b25c6e3,behavior,86bmq14poq.csv,compulsive,factly,literal,honestly,happily,,,,,,,
33085,,"{""Sound"":""normal, loud, quiet, shy, nice""}",survey-text,4,2.1.0,169701,60e8a63f733f423be3da1846,691666c81a5eeee631c26019,69166f87ae8084560b25c6e3,sound,86bmq14poq.csv,normal,loud,quiet,shy,nice,,,,,,,
6970,,"{""Know"":""yes my nephew""}",survey-text,5,2.1.0,176709,60e8a63f733f423be3da1846,691666c81a5eeee631c26019,69166f87ae8084560b25c6e3,know,86bmq14poq.csv,yes my nephew,,,,,,,,,,,
31201,,"{""Person"":""anxious, social problems, smart, quiet, nervous""}",survey-text,2,2.1.0,59817,6626b05a15db572c21948eb7,691666c81a5eeee631c26019,69166f750f7d44c1a5b2c71c,person,86zgk22h35.csv,anxious,social problems,smart,quiet,nervous,,,,,,,
57929,,"{""Behavior"":""quiet, non-conforming, nervous, jerky movement, staring""}",survey-text,3,2.1.0,117755,6626b05a15db572c21948eb7,691666c81a5eeee631c26019,69166f750f7d44c1a5b2c71c,behavior,86zgk22h35.csv,quiet,non-conforming,nervous,jerky movement,staring,,,,,,,
85458,,"{""Sound"":""normal, hesitant, quiet, reserved, friendly ""}",survey-text,4,2.1.0,203222,6626b05a15db572c21948eb7,691666c81a5eeee631c26019,69166f750f7d44c1a5b2c71c,sound,86zgk22h35.csv,normal,hesitant,quiet,reserved,friendly,,,,,,,
6104,,"{""Know"":""No""}",survey-text,5,2.1.0,209338,6626b05a15db572c21948eb7,691666c81a5eeee631c26019,69166f750f7d44c1a5b2c71c,know,86zgk22h35.csv,No,,,,,,,,,,,
32180,,"{""Person"":""Smart, Intelligent, Awkward, Anti-social, Special""}",survey-text,2,2.1.0,66020,5d17ad8f9bd0710001aaa93a,691666c81a5eeee631c26019,69166d0561e6c26ce38fc874,person,9e51axvjx1.csv,Smart,Intelligent,Awkward,Anti-social,Special,,,,,,,
19805,,"{""Behavior"":""Awkward, Odd, Strange, Unconventional, Unaware, ""}",survey-text,3,2.1.0,85827,5d17ad8f9bd0710001aaa93a,691666c81a5eeee631c26019,69166d0561e6c26ce38fc874,behavior,9e51axvjx1.csv,Awkward,Odd,Strange,Unconventional,Unaware,,,,,,,
72126,,"{""Sound"":""Intelligent, Normal, Complex, Nervous, Clear""}",survey-text,4,2.1.0,157955,5d17ad8f9bd0710001aaa93a,691666c81a5eeee631c26019,69166d0561e6c26ce38fc874,sound,9e51axvjx1.csv,Intelligent,Normal,Complex,Nervous,Clear,,,,,,,
5618,,"{""Know"":""yes""}",survey-text,5,2.1.0,163580,5d17ad8f9bd0710001aaa93a,691666c81a5eeee631c26019,69166d0561e6c26ce38fc874,know,9e51axvjx1.csv,yes,,,,,,,,,,,
44044,,"{""Person"":""delayed, different, anti-social, weird, smart""}",survey-text,2,2.1.0,49760,663f8b8c5491cf738a5d35db,691666c81a5eeee631c26019,69166fb3f737352a8c8813d6,person,9fyw3wyxpn.csv,delayed,different,anti-social,weird,smart,,,,,,,
19682,,"{""Behavior"":""different, atypical, weird, strange, unconventional""}",survey-text,3,2.1.0,69444,663f8b8c5491cf738a5d35db,691666c81a5eeee631c26019,69166fb3f737352a8c8813d6,behavior,9fyw3wyxpn.csv,different,atypical,weird,strange,unconventional,,,,,,,
32499,,"{""Sound"":""normal, slow-speaking, regular, human, like me""}",survey-text,4,2.1.0,101945,663f8b8c5491cf738a5d35db,691666c81a5eeee631c26019,69166fb3f737352a8c8813d6,sound,9fyw3wyxpn.csv,normal,slow-speaking,regular,human,like me,,,,,,,
6693,,"{""Know"":""No""}",survey-text,5,2.1.0,108645,663f8b8c5491cf738a5d35db,691666c81a5eeee631c26019,69166fb3f737352a8c8813d6,know,9fyw3wyxpn.csv,No,,,,,,,,,,,
61936,,"{""Person"":""Autism presents in several ways but is best known for detachment from others.""}",survey-text,2,2.1.0,128668,6653691608992eba0cff2cbf,691666c81a5eeee631c26019,69166d716aa32a64804800a2,person,9u5hhqc5t4.csv,Autism presents in several ways but is best known for detachment from others.,,,,,,,,,,,
68840,,"{""Behavior"":""detached, repetitive motions, rocking, decreased verbal expression""}",survey-text,3,2.1.0,197508,6653691608992eba0cff2cbf,691666c81a5eeee631c26019,69166d716aa32a64804800a2,behavior,9u5hhqc5t4.csv,detached,repetitive motions,rocking,decreased verbal expression,,,,,,,,
59640,,"{""Sound"":""can be quiet or loud, autism comes in a spectrum and presents in many ways""}",survey-text,4,2.1.0,257149,6653691608992eba0cff2cbf,691666c81a5eeee631c26019,69166d716aa32a64804800a2,sound,9u5hhqc5t4.csv,can be quiet or loud,autism comes in a spectrum and presents in many ways,,,,,,,,,,
11065,,"{""Know"":""yes""}",survey-text,5,2.1.0,268216,6653691608992eba0cff2cbf,691666c81a5eeee631c26019,69166d716aa32a64804800a2,know,9u5hhqc5t4.csv,yes,,,,,,,,,,,
124328,,"{""Person"":""neurodivergent, spicy, intelligent, creative, dino nuggies""}",survey-text,2,2.1.0,157921,5d23cee7771223001647e8c7,691666c81a5eeee631c26019,691670ede77fdb5e576d6aaa,person,a080whw93e.csv,neurodivergent,spicy,intelligent,creative,dino nuggies,,,,,,,
25860,,"{""Behavior"":""shy, sensitive, obsessive, quiet, antisocial""}",survey-text,3,2.1.0,183783,5d23cee7771223001647e8c7,691666c81a5eeee631c26019,691670ede77fdb5e576d6aaa,behavior,a080whw93e.csv,shy,sensitive,obsessive,quiet,antisocial,,,,,,,
24804,,"{""Sound"":""just like everyone else""}",survey-text,4,2.1.0,208588,5d23cee7771223001647e8c7,691666c81a5eeee631c26019,691670ede77fdb5e576d6aaa,sound,a080whw93e.csv,just like everyone else,,,,,,,,,,,
11143,,"{""Know"":""yes""}",survey-text,5,2.1.0,219734,5d23cee7771223001647e8c7,691666c81a5eeee631c26019,691670ede77fdb5e576d6aaa,know,a080whw93e.csv,yes,,,,,,,,,,,
74371,,"{""Person"":""rigid, neurodivergent, anxious, bright, confused""}",survey-text,2,2.1.0,1974141,608aede3203836ab453453a0,691666c81a5eeee631c26019,69166e01770f590c6fce75bb,person,almumq19sd.csv,rigid,neurodivergent,anxious,bright,confused,,,,,,,
37848,,"{""Behavior"":""differently, cautious, apprehensively, deliberately, hesitantly""}",survey-text,3,2.1.0,2011995,608aede3203836ab453453a0,691666c81a5eeee631c26019,69166e01770f590c6fce75bb,behavior,almumq19sd.csv,differently,cautious,apprehensively,deliberately,hesitantly,,,,,,,
82471,,"{""Sound"":""varied, quiet, monotone, normal, confused""}",survey-text,4,2.1.0,2094472,608aede3203836ab453453a0,691666c81a5eeee631c26019,69166e01770f590c6fce75bb,sound,almumq19sd.csv,varied,quiet,monotone,normal,confused,,,,,,,
3549,,"{""Know"":""yes""}",survey-text,5,2.1.0,2098043,608aede3203836ab453453a0,691666c81a5eeee631c26019,69166e01770f590c6fce75bb,know,almumq19sd.csv,yes,,,,,,,,,,,
64290,,"{""Person"":""special needs, disabled, unfocused, loud, dysfunctional""}",survey-text,2,2.1.0,70726,6596be88a11683cdae324f1b,691666c81a5eeee631c26019,69166d87c53fb3468ff536c0,person,asfkggl720.csv,special needs,disabled,unfocused,loud,dysfunctional,,,,,,,
21163,,"{""Behavior"":""loud, violent, unfocused, confused""}",survey-text,3,2.1.0,91894,6596be88a11683cdae324f1b,691666c81a5eeee631c26019,69166d87c53fb3468ff536c0,behavior,asfkggl720.csv,loud,violent,unfocused,confused,,,,,,,,
46898,,"{""Sound"":""loud, uninterested, unfocused, different""}",survey-text,4,2.1.0,138796,6596be88a11683cdae324f1b,691666c81a5eeee631c26019,69166d87c53fb3468ff536c0,sound,asfkggl720.csv,loud,uninterested,unfocused,different,,,,,,,,
7304,,"{""Know"":""Yes""}",survey-text,5,2.1.0,146121,6596be88a11683cdae324f1b,691666c81a5eeee631c26019,69166d87c53fb3468ff536c0,know,asfkggl720.csv,Yes,,,,,,,,,,,
73913,,"{""Person"":""fixated, precise, detail-oriented, unusual, honest, sensitive""}",survey-text,2,2.1.0,312143,6733b5e257da4b8525bdcae7,691666c81a5eeee631c26019,69167862ac1823370857c1a8,person,aw325v0zc8.csv,fixated,precise,detail-oriented,unusual,honest,sensitive,,,,,,
107938,,"{""Behavior"":""sensitive, routine, repetitive, introverted, literal""}",survey-text,3,2.1.0,420096,6733b5e257da4b8525bdcae7,691666c81a5eeee631c26019,69167862ac1823370857c1a8,behavior,aw325v0zc8.csv,sensitive,routine,repetitive,introverted,literal,,,,,,,
105917,,"{""Sound"":""unusual, quiet, detail-oriented, introverted, direct""}",survey-text,4,2.1.0,526029,6733b5e257da4b8525bdcae7,691666c81a5eeee631c26019,69167862ac1823370857c1a8,sound,aw325v0zc8.csv,unusual,quiet,detail-oriented,introverted,direct,,,,,,,
5193,,"{""Know"":""no""}",survey-text,5,2.1.0,531244,6733b5e257da4b8525bdcae7,691666c81a5eeee631c26019,69167862ac1823370857c1a8,know,aw325v0zc8.csv,no,,,,,,,,,,,
30523,,"{""Person"":""mental illness, awkward, niche talents, spectrum""}",survey-text,2,2.1.0,36998,5f5967d6e280e61b2db8e55c,691666c81a5eeee631c26019,69166df573b35563121103c5,person,b1dqavy30x.csv,mental illness,awkward,niche talents,spectrum,,,,,,,,
52252,,"{""Behavior"":""awkward, tactless, straightforward, honest, inconsiderate""}",survey-text,3,2.1.0,89253,5f5967d6e280e61b2db8e55c,691666c81a5eeee631c26019,69166df573b35563121103c5,behavior,b1dqavy30x.csv,awkward,tactless,straightforward,honest,inconsiderate,,,,,,,
36247,,"{""Sound"":""slow, speed impediment, awkward, rough, stutter""}",survey-text,4,2.1.0,125504,5f5967d6e280e61b2db8e55c,691666c81a5eeee631c26019,69166df573b35563121103c5,sound,b1dqavy30x.csv,slow,speed impediment,awkward,rough,stutter,,,,,,,
9141,,"{""Know"":""no""}",survey-text,5,2.1.0,134652,5f5967d6e280e61b2db8e55c,691666c81a5eeee631c26019,69166df573b35563121103c5,know,b1dqavy30x.csv,no,,,,,,,,,,,
83949,,"{""Person"":""spectrum, how long, levels, functional""}",survey-text,2,2.1.0,137166,5bd7169c6d82850001257d57,691666c81a5eeee631c26019,69168158727c0d43b33d23e8,person,b70t3aq4g6.csv,spectrum,how long,levels,functional,,,,,,,,
145636,,"{""Behavior"":""tends to repeat the same behavior, fear, scared of irrational thoughts that aren't there""}",survey-text,3,2.1.0,282858,5bd7169c6d82850001257d57,691666c81a5eeee631c26019,69168158727c0d43b33d23e8,behavior,b70t3aq4g6.csv,tends to repeat the same behavior,fear,scared of irrational thoughts that aren't there,,,,,,,,,
115322,,"{""Sound"":""some hum or repeat words over and over, some have a tick or shake to calm themselves down,""}",survey-text,4,2.1.0,398237,5bd7169c6d82850001257d57,691666c81a5eeee631c26019,69168158727c0d43b33d23e8,sound,b70t3aq4g6.csv,some hum or repeat words over and over,some have a tick or shake to calm themselves down,,,,,,,,,,
11386,,"{""Know"":""no""}",survey-text,5,2.1.0,409659,5bd7169c6d82850001257d57,691666c81a5eeee631c26019,69168158727c0d43b33d23e8,know,b70t3aq4g6.csv,no,,,,,,,,,,,
23407,,"{""Person"":""extreme focus, talent, need help, need support, spectrum""}",survey-text,2,2.1.0,36286,6173153923f87c01a847eb5b,691666c81a5eeee631c26019,69166c3e4d165d8bcb1fb277,person,badl3ndj5w.csv,extreme focus,talent,need help,need support,spectrum,,,,,,,
34231,,"{""Behavior"":""focus, unaware, singularity, non-verbal, talk too much""}",survey-text,3,2.1.0,70522,6173153923f87c01a847eb5b,691666c81a5eeee631c26019,69166c3e4d165d8bcb1fb277,behavior,badl3ndj5w.csv,focus,unaware,singularity,non-verbal,talk too much,,,,,,,
29576,,"{""Sound"":""normal, everyday, non-verbal, impaired, loud""}",survey-text,4,2.1.0,100103,6173153923f87c01a847eb5b,691666c81a5eeee631c26019,69166c3e4d165d8bcb1fb277,sound,badl3ndj5w.csv,normal,everyday,non-verbal,impaired,loud,,,,,,,
63987,,"{""Know"":""I know people who identify as autistic, but have never been formally diagnosed. I also follow a TikTok creator that has autism, but I'm not sure if that's what you're asking in this question. In my normal day to day life, I do not know anyone that has been clinically diagnosed as autistic.""}",survey-text,5,2.1.0,164095,6173153923f87c01a847eb5b,691666c81a5eeee631c26019,69166c3e4d165d8bcb1fb277,know,badl3ndj5w.csv,I know people who identify as autistic,but have never been formally diagnosed. I also follow a TikTok creator that has autism,but I'm not sure if that's what you're asking in this question. In my normal day to day life,I do not know anyone that has been clinically diagnosed as autistic.,,,,,,,,
21955,,"{""Person"":""quirky,awkward,savant,unadjusted,strange""}",survey-text,2,2.1.0,25919,60ceeec3a0bed4a1e603b8d7,691666c81a5eeee631c26019,69167418353aa65becc10988,person,bdhf4z64hv.csv,quirky,awkward,savant,unadjusted,strange,,,,,,,
28410,,"{""Behavior"":""fastidious,eccentric,unusual,detailed,focused""}",survey-text,3,2.1.0,54331,60ceeec3a0bed4a1e603b8d7,691666c81a5eeee631c26019,69167418353aa65becc10988,behavior,bdhf4z64hv.csv,fastidious,eccentric,unusual,detailed,focused,,,,,,,
10485,,"{""Sound"":""eccentric,strange,weird,logical,rational""}",survey-text,4,2.1.0,64818,60ceeec3a0bed4a1e603b8d7,691666c81a5eeee631c26019,69167418353aa65becc10988,sound,bdhf4z64hv.csv,eccentric,strange,weird,logical,rational,,,,,,,
2942,,"{""Know"":""No""}",survey-text,5,2.1.0,67762,60ceeec3a0bed4a1e603b8d7,691666c81a5eeee631c26019,69167418353aa65becc10988,know,bdhf4z64hv.csv,No,,,,,,,,,,,
22516,,"{""Person"":""smart, different,interests,awkward,unique""}",survey-text,2,2.1.0,28107,672e893282c5078f8e51ff28,691666c81a5eeee631c26019,691670b073b3556312110421,person,btxtmgvojl.csv,smart,different,interests,awkward,unique,,,,,,,
26467,,"{""Behavior"":""different,inappropiate,reserved, detailed, controlled ""}",survey-text,3,2.1.0,54575,672e893282c5078f8e51ff28,691666c81a5eeee631c26019,691670b073b3556312110421,behavior,btxtmgvojl.csv,different,inappropiate,reserved,detailed,controlled,,,,,,,
59862,,"{""Sound"":""normal, words,conversation,unqie,funny""}",survey-text,4,2.1.0,114437,672e893282c5078f8e51ff28,691666c81a5eeee631c26019,691670b073b3556312110421,sound,btxtmgvojl.csv,normal,words,conversation,unqie,funny,,,,,,,
3282,,"{""Know"":""yes""}",survey-text,5,2.1.0,117720,672e893282c5078f8e51ff28,691666c81a5eeee631c26019,691670b073b3556312110421,know,btxtmgvojl.csv,yes,,,,,,,,,,,
77028,,"{""Person"":""Unique, intelligent, thoughtful, detail-oriented, focused, sensitive, creative, different, analytical, introspective ""}",survey-text,2,2.1.0,87858,68379f3fafa634a21d761586,691666c81a5eeee631c26019,69166e214628eb27b3778cdb,person,c2bj2k45s3.csv,Unique,intelligent,thoughtful,detail-oriented,focused,sensitive,creative,different,analytical,introspective,,
81049,,"{""Behavior"":""Focused, repetitive, routine-oriented, attentive to detail, socially reserved, sensitive to stimuli, analytical, independent, methodical, introspective""}",survey-text,3,2.1.0,168910,68379f3fafa634a21d761586,691666c81a5eeee631c26019,69166e214628eb27b3778cdb,behavior,c2bj2k45s3.csv,Focused,repetitive,routine-oriented,attentive to detail,socially reserved,sensitive to stimuli,analytical,independent,methodical,introspective,,
55356,,"{""Sound"":""Calm, monotone, precise, soft-spoken, measured, deliberate, expressive, clear, thoughtful, quiet""}",survey-text,4,2.1.0,224268,68379f3fafa634a21d761586,691666c81a5eeee631c26019,69166e214628eb27b3778cdb,sound,c2bj2k45s3.csv,Calm,monotone,precise,soft-spoken,measured,deliberate,expressive,clear,thoughtful,quiet,,
19726,,"{""Know"":""My cousin""}",survey-text,5,2.1.0,244004,68379f3fafa634a21d761586,691666c81a5eeee631c26019,69166e214628eb27b3778cdb,know,c2bj2k45s3.csv,My cousin,,,,,,,,,,,
45264,,"{""Person"":""friendly, smart, awkward, talkative, good memory""}",survey-text,2,2.1.0,50815,5c0b388b9c7b1100015ab55f,691666c81a5eeee631c26019,69166d29c4ce820463851366,person,ceqrd3jb3p.csv,friendly,smart,awkward,talkative,good memory,,,,,,,
83294,,"{""Behavior"":""attentive, rocks, repetitive, confused, anxious""}",survey-text,3,2.1.0,134110,5c0b388b9c7b1100015ab55f,691666c81a5eeee631c26019,69166d29c4ce820463851366,behavior,ceqrd3jb3p.csv,attentive,rocks,repetitive,confused,anxious,,,,,,,
28657,,"{""Sound"":""normal, worried, monotone, anxious, insecure""}",survey-text,4,2.1.0,162769,5c0b388b9c7b1100015ab55f,691666c81a5eeee631c26019,69166d29c4ce820463851366,sound,ceqrd3jb3p.csv,normal,worried,monotone,anxious,insecure,,,,,,,
6305,,"{""Know"":""yes""}",survey-text,5,2.1.0,169087,5c0b388b9c7b1100015ab55f,691666c81a5eeee631c26019,69166d29c4ce820463851366,know,ceqrd3jb3p.csv,yes,,,,,,,,,,,
116777,,"{""Person"":""stigmatized, introverted, reserve, sensory overload, adhere to structural ""}",survey-text,2,2.1.0,124403,566a19b57da035000fb39b89,691666c81a5eeee631c26019,69166ef8194538cf6836dc1e,person,ch0bqvt1h5.csv,stigmatized,introverted,reserve,sensory overload,adhere to structural,,,,,,,
127531,,"{""Behavior"":""Particular, like to take their time when it comes doing certain things, organized, detail focus, cautious  ""}",survey-text,3,2.1.0,251936,566a19b57da035000fb39b89,691666c81a5eeee631c26019,69166ef8194538cf6836dc1e,behavior,ch0bqvt1h5.csv,Particular,like to take their time when it comes doing certain things,organized,detail focus,cautious,,,,,,,
57675,,"{""Sound"":""Cautionary, patience with their words, consideration, picky and sometime lack of maturity ""}",survey-text,4,2.1.0,309614,566a19b57da035000fb39b89,691666c81a5eeee631c26019,69166ef8194538cf6836dc1e,sound,ch0bqvt1h5.csv,Cautionary,patience with their words,consideration,picky and sometime lack of maturity,,,,,,,,
12483,,"{""Know"":""Yes, I knew a few people who is on the spectrum. ""}",survey-text,5,2.1.0,322102,566a19b57da035000fb39b89,691666c81a5eeee631c26019,69166ef8194538cf6836dc1e,know,ch0bqvt1h5.csv,Yes,I knew a few people who is on the spectrum.,,,,,,,,,,
53406,,"{""Person"":""different, shy, no eye contact, awkward, childlike""}",survey-text,2,2.1.0,83879,63cc5fddd5813c609d5b28d5,691666c81a5eeee631c26019,69167000c39e632510e43fb4,person,deean9ekm1.csv,different,shy,no eye contact,awkward,childlike,,,,,,,
38982,,"{""Behavior"":""Quite, no eye contact, socially awkward, says thing as they are, no filters, ""}",survey-text,3,2.1.0,122870,63cc5fddd5813c609d5b28d5,691666c81a5eeee631c26019,69167000c39e632510e43fb4,behavior,deean9ekm1.csv,Quite,no eye contact,socially awkward,says thing as they are,no filters,,,,,,,
43605,,"{""Sound"":""normal, repeats, childlike, quieter, timid""}",survey-text,4,2.1.0,166487,63cc5fddd5813c609d5b28d5,691666c81a5eeee631c26019,69167000c39e632510e43fb4,sound,deean9ekm1.csv,normal,repeats,childlike,quieter,timid,,,,,,,
6102,,"{""Know"":""no""}",survey-text,5,2.1.0,172595,63cc5fddd5813c609d5b28d5,691666c81a5eeee631c26019,69167000c39e632510e43fb4,know,deean9ekm1.csv,no,,,,,,,,,,,
35647,,"{""Person"":""smart, structured, awkward, monotone, verbal""}",survey-text,2,2.1.0,59761,5abc3250a3ba7a0001b44c37,691666c81a5eeee631c26019,69166ddd222af351c9e2ac02,person,dntm4p3vr9.csv,smart,structured,awkward,monotone,verbal,,,,,,,
61429,,"{""Behavior"":""quiet, slow, different, moving, interesting""}",survey-text,3,2.1.0,121193,5abc3250a3ba7a0001b44c37,691666c81a5eeee631c26019,69166ddd222af351c9e2ac02,behavior,dntm4p3vr9.csv,quiet,slow,different,moving,interesting,,,,,,,
94313,,"{""Sound"":""monotone, quiet, awkward, rushed, exaggerated ""}",survey-text,4,2.1.0,215509,5abc3250a3ba7a0001b44c37,691666c81a5eeee631c26019,69166ddd222af351c9e2ac02,sound,dntm4p3vr9.csv,monotone,quiet,awkward,rushed,exaggerated,,,,,,,
2427,,"{""Know"":""yes""}",survey-text,5,2.1.0,217942,5abc3250a3ba7a0001b44c37,691666c81a5eeee631c26019,69166ddd222af351c9e2ac02,know,dntm4p3vr9.csv,yes,,,,,,,,,,,
68342,,"{""Person"":""short attention span, sensory sensitive, repetition of things""}",survey-text,2,2.1.0,153110,63d6873b65a6170d64a652f6,691666c81a5eeee631c26019,69166cdc687cef362987d118,person,dy5be3szdg.csv,short attention span,sensory sensitive,repetition of things,,,,,,,,,
42540,,"{""Behavior"":""repetitive, habitual, narrow, unique, impatient, bluntness""}",survey-text,3,2.1.0,195654,63d6873b65a6170d64a652f6,691666c81a5eeee631c26019,69166cdc687cef362987d118,behavior,dy5be3szdg.csv,repetitive,habitual,narrow,unique,impatient,bluntness,,,,,,
72851,,"{""Sound"":""repeating words, loud voices, monotone, yelling, different or unique sounding""}",survey-text,4,2.1.0,268509,63d6873b65a6170d64a652f6,691666c81a5eeee631c26019,69166cdc687cef362987d118,sound,dy5be3szdg.csv,repeating words,loud voices,monotone,yelling,different or unique sounding,,,,,,,
9946,,"{""Know"":""not personally, no""}",survey-text,5,2.1.0,278464,63d6873b65a6170d64a652f6,691666c81a5eeee631c26019,69166cdc687cef362987d118,know,dy5be3szdg.csv,not personally,no,,,,,,,,,,
52946,,"{""Person"":""smart, active, stimming, particular, structured lifesyle ""}",survey-text,2,2.1.0,60595,60ddfe929fff846f04cd2c95,691666c81a5eeee631c26019,69166ef22f74f89862ef3254,person,dza1yb1abm.csv,smart,active,stimming,particular,structured lifesyle,,,,,,,
61663,,"{""Behavior"":""impulsive, out of habit, set in their ways, particular ""}",survey-text,3,2.1.0,122259,60ddfe929fff846f04cd2c95,691666c81a5eeee631c26019,69166ef22f74f89862ef3254,behavior,dza1yb1abm.csv,impulsive,out of habit,set in their ways,particular,,,,,,,,
47654,,"{""Sound"":""if they are non verbal it's a lot of sounds like grunts, moans, sign language etc, but if they're verbal and high functioning the sound just like everyone else""}",survey-text,4,2.1.0,169913,60ddfe929fff846f04cd2c95,691666c81a5eeee631c26019,69166ef22f74f89862ef3254,sound,dza1yb1abm.csv,if they are non verbal it's a lot of sounds like grunts,moans,sign language etc,but if they're verbal and high functioning the sound just like everyone else,,,,,,,,
60418,,"{""Know"":""Yes more than a couple people""}",survey-text,5,2.1.0,230336,60ddfe929fff846f04cd2c95,691666c81a5eeee631c26019,69166ef22f74f89862ef3254,know,dza1yb1abm.csv,Yes more than a couple people,,,,,,,,,,,
134951,,"{""Person"":""special, different, caring, smart, funny, awkward, quiet""}",survey-text,2,2.1.0,282604,66884d036c4d24aaba02c702,691666c81a5eeee631c26019,69167236a4913bf1c78ee87b,person,e7rpp8kgr0.csv,special,different,caring,smart,funny,awkward,quiet,,,,,
125299,,"{""Behavior"":""happy, smiling, friendly, polite, needful""}",survey-text,3,2.1.0,407905,66884d036c4d24aaba02c702,691666c81a5eeee631c26019,69167236a4913bf1c78ee87b,behavior,e7rpp8kgr0.csv,happy,smiling,friendly,polite,needful,,,,,,,
109859,,"{""Sound"":""quiet, stutter, slurring, muted, low-pitch""}",survey-text,4,2.1.0,517765,66884d036c4d24aaba02c702,691666c81a5eeee631c26019,69167236a4913bf1c78ee87b,sound,e7rpp8kgr0.csv,quiet,stutter,slurring,muted,low-pitch,,,,,,,
29021,,"{""Know"":""Yes, a cousin""}",survey-text,5,2.1.0,546789,66884d036c4d24aaba02c702,691666c81a5eeee631c26019,69167236a4913bf1c78ee87b,know,e7rpp8kgr0.csv,Yes,a cousin,,,,,,,,,,
58288,,"{""Person"":""intelligent, sensitive, expert, logical, creative""}",survey-text,2,2.1.0,64493,66622a784a9e6c43497fc064,691666c81a5eeee631c26019,69166e19d03ab6a6d88f5ec7,person,eepbuamsyt.csv,intelligent,sensitive,expert,logical,creative,,,,,,,
176771,,"{""Behavior"":""methodical, orderly, specific, quirky, normal""}",survey-text,3,2.1.0,241268,66622a784a9e6c43497fc064,691666c81a5eeee631c26019,69166e19d03ab6a6d88f5ec7,behavior,eepbuamsyt.csv,methodical,orderly,specific,quirky,normal,,,,,,,
54374,,"{""Sound"":""softspoken, monotone, gentle, expressive, excited""}",survey-text,4,2.1.0,295644,66622a784a9e6c43497fc064,691666c81a5eeee631c26019,69166e19d03ab6a6d88f5ec7,sound,eepbuamsyt.csv,softspoken,monotone,gentle,expressive,excited,,,,,,,
12601,,"{""Know"":""Yes""}",survey-text,5,2.1.0,308250,66622a784a9e6c43497fc064,691666c81a5eeee631c26019,69166e19d03ab6a6d88f5ec7,know,eepbuamsyt.csv,Yes,,,,,,,,,,,
59277,,"{""Person"":""particular, obsessive, compulsive, regular, tick, concerned, organized""}",survey-text,2,2.1.0,81269,670f6171756d8d3b2a73e819,691666c81a5eeee631c26019,69166d7c7a03af87a171d467,person,eju09w392q.csv,particular,obsessive,compulsive,regular,tick,concerned,organized,,,,,
54180,,"{""Behavior"":""stubborn, repetitive, sensitive, particular, serious, unwieldy, self-absorbed""}",survey-text,3,2.1.0,135452,670f6171756d8d3b2a73e819,691666c81a5eeee631c26019,69166d7c7a03af87a171d467,behavior,eju09w392q.csv,stubborn,repetitive,sensitive,particular,serious,unwieldy,self-absorbed,,,,,
59330,,"{""Sound"":""monotone, formal, mature, serious, thoughtful, weird""}",survey-text,4,2.1.0,194786,670f6171756d8d3b2a73e819,691666c81a5eeee631c26019,69166d7c7a03af87a171d467,sound,eju09w392q.csv,monotone,formal,mature,serious,thoughtful,weird,,,,,,
11980,,"{""Know"":""no, I do not know anyone autistic.""}",survey-text,5,2.1.0,206772,670f6171756d8d3b2a73e819,691666c81a5eeee631c26019,69166d7c7a03af87a171d467,know,eju09w392q.csv,no,I do not know anyone autistic.,,,,,,,,,,
59215,,"{""Person"":""Introvert , loyal , sincere, perceptive, patient,  imaginative""}",survey-text,2,2.1.0,120706,677679d8f8b195498c2f7a09,691666c81a5eeee631c26019,6916771ffcacdb9cb7632b87,person,esmonth672.csv,Introvert,loyal,sincere,perceptive,patient,imaginative,,,,,,
103010,,"{""Behavior"":""sensitive, strong, calm demeanor, avoiding eye contact, focus""}",survey-text,3,2.1.0,223720,677679d8f8b195498c2f7a09,691666c81a5eeee631c26019,6916771ffcacdb9cb7632b87,behavior,esmonth672.csv,sensitive,strong,calm demeanor,avoiding eye contact,focus,,,,,,,
98092,,"{""Sound"":""steady, monotone, expressive , gentle, rapid, slow-paced""}",survey-text,4,2.1.0,321816,677679d8f8b195498c2f7a09,691666c81a5eeee631c26019,6916771ffcacdb9cb7632b87,sound,esmonth672.csv,steady,monotone,expressive,gentle,rapid,slow-paced,,,,,,
21483,,"{""Know"":""Yes, a friend""}",survey-text,5,2.1.0,343312,677679d8f8b195498c2f7a09,691666c81a5eeee631c26019,6916771ffcacdb9cb7632b87,know,esmonth672.csv,Yes,a friend,,,,,,,,,,
99499,,"{""Person"":""Smart, caring, creative, emotional, kind""}",survey-text,2,2.1.0,131398,671a80f4ca33770b00602f07,691666c81a5eeee631c26019,691672dd9542f84bfa9d57a2,person,eu7z2x395d.csv,Smart,caring,creative,emotional,kind,,,,,,,
96158,,"{""Behavior"":""overwhelmed, sensitive, honest, respectful, unfocused ""}",survey-text,3,2.1.0,227557,671a80f4ca33770b00602f07,691666c81a5eeee631c26019,691672dd9542f84bfa9d57a2,behavior,eu7z2x395d.csv,overwhelmed,sensitive,honest,respectful,unfocused,,,,,,,
93342,,"{""Sound"":""quiet, hesitant, precise, repetitive, direct""}",survey-text,4,2.1.0,320901,671a80f4ca33770b00602f07,691666c81a5eeee631c26019,691672dd9542f84bfa9d57a2,sound,eu7z2x395d.csv,quiet,hesitant,precise,repetitive,direct,,,,,,,
8979,,"{""Know"":""yes""}",survey-text,5,2.1.0,329885,671a80f4ca33770b00602f07,691666c81a5eeee631c26019,691672dd9542f84bfa9d57a2,know,eu7z2x395d.csv,yes,,,,,,,,,,,
32177,,"{""Person"":""someone on a different level mentally than  a normal mental person""}",survey-text,2,2.1.0,48040,672fc2d5ebb0ecd2a78cf80b,691666c81a5eeee631c26019,69166d82a778638de0f59977,person,f5xezhcv0z.csv,someone on a different level mentally than  a normal mental person,,,,,,,,,,,
104192,,"{""Behavior"":""robotic, unusual, unique, regimented, repetitive""}",survey-text,3,2.1.0,152240,672fc2d5ebb0ecd2a78cf80b,691666c81a5eeee631c26019,69166d82a778638de0f59977,behavior,f5xezhcv0z.csv,robotic,unusual,unique,regimented,repetitive,,,,,,,
44715,,"{""Sound"":""monotone, emotionless, masked, quiet, stilting""}",survey-text,4,2.1.0,196964,672fc2d5ebb0ecd2a78cf80b,691666c81a5eeee631c26019,69166d82a778638de0f59977,sound,f5xezhcv0z.csv,monotone,emotionless,masked,quiet,stilting,,,,,,,
3753,,"{""Know"":""no""}",survey-text,5,2.1.0,200729,672fc2d5ebb0ecd2a78cf80b,691666c81a5eeee631c26019,69166d82a778638de0f59977,know,f5xezhcv0z.csv,no,,,,,,,,,,,
60677,,"{""Person"":""Unique, awkward, intelligent, lost, helpful, unemotional""}",survey-text,2,2.1.0,82166,66293a3bac9b03d00e8a57e0,691666c81a5eeee631c26019,69166d94ed26392c9315ff20,person,f9hmcc5ux3.csv,Unique,awkward,intelligent,lost,helpful,unemotional,,,,,,
81437,,"{""Behavior"":""Abnormal, awkward, robotic, strange, deliberate""}",survey-text,3,2.1.0,163611,66293a3bac9b03d00e8a57e0,691666c81a5eeee631c26019,69166d94ed26392c9315ff20,behavior,f9hmcc5ux3.csv,Abnormal,awkward,robotic,strange,deliberate,,,,,,,
39978,,"{""Sound"":""Robotic, unemotional, deliberate, loud, rude""}",survey-text,4,2.1.0,203593,66293a3bac9b03d00e8a57e0,691666c81a5eeee631c26019,69166d94ed26392c9315ff20,sound,f9hmcc5ux3.csv,Robotic,unemotional,deliberate,loud,rude,,,,,,,
6892,,"{""Know"":""Yes""}",survey-text,5,2.1.0,210492,66293a3bac9b03d00e8a57e0,691666c81a5eeee631c26019,69166d94ed26392c9315ff20,know,f9hmcc5ux3.csv,Yes,,,,,,,,,,,
79825,,"{""Person"":""neurodivergent, special, artistic. interesting, common""}",survey-text,2,2.1.0,91674,62a766b2136b85985f41acb7,691666c81a5eeee631c26019,69169c4b90e6a8796bbbaa94,person,fcw9s5ko08.csv,neurodivergent,special,artistic. interesting,common,,,,,,,,
65405,,"{""Behavior"":""unusual, eccentric, oddly, enthusiastically, differently ""}",survey-text,3,2.1.0,157082,62a766b2136b85985f41acb7,691666c81a5eeee631c26019,69169c4b90e6a8796bbbaa94,behavior,fcw9s5ko08.csv,unusual,eccentric,oddly,enthusiastically,differently,,,,,,,
49704,,"{""Sound"":""smart, intelligent, interesting, focused, engaging ""}",survey-text,4,2.1.0,206792,62a766b2136b85985f41acb7,691666c81a5eeee631c26019,69169c4b90e6a8796bbbaa94,sound,fcw9s5ko08.csv,smart,intelligent,interesting,focused,engaging,,,,,,,
5189,,"{""Know"":""yes ""}",survey-text,5,2.1.0,211988,62a766b2136b85985f41acb7,691666c81a5eeee631c26019,69169c4b90e6a8796bbbaa94,know,fcw9s5ko08.csv,yes ,,,,,,,,,,,
67799,,"{""Person"":""focused, perceptive, honest, creative, analytical, passionate""}",survey-text,2,2.1.0,146496,5b15d20c444cef0001cb1153,691666c81a5eeee631c26019,6916761be65df2b5dbe2a3a2,person,fhxq1b65m2.csv,focused,perceptive,honest,creative,analytical,passionate,,,,,,
62603,,"{""Behavior"":""direct, focused, sensory-sensitive, thoughtful, literal, intense""}",survey-text,3,2.1.0,209104,5b15d20c444cef0001cb1153,691666c81a5eeee631c26019,6916761be65df2b5dbe2a3a2,behavior,fhxq1b65m2.csv,direct,focused,sensory-sensitive,thoughtful,literal,intense,,,,,,
38677,,"{""Sound"":""precise, literal, scripted, direct, expressive, rhythmic""}",survey-text,4,2.1.0,247786,5b15d20c444cef0001cb1153,691666c81a5eeee631c26019,6916761be65df2b5dbe2a3a2,sound,fhxq1b65m2.csv,precise,literal,scripted,direct,expressive,rhythmic,,,,,,
11060,,"{""Know"":""no""}",survey-text,5,2.1.0,258850,5b15d20c444cef0001cb1153,691666c81a5eeee631c26019,6916761be65df2b5dbe2a3a2,know,fhxq1b65m2.csv,no,,,,,,,,,,,
127868,,"{""Person"":""Logical, smart, calculated, passionate, opinionated, dedicated, stubborn""}",survey-text,2,2.1.0,143493,616202f3ca5b3ab47923ee80,691666c81a5eeee631c26019,69166d11fc85576675111018,person,flzpmnnlq7.csv,Logical,smart,calculated,passionate,opinionated,dedicated,stubborn,,,,,
154145,,"{""Behavior"":""routine, careful, thoughtful, normal, internal""}",survey-text,3,2.1.0,297639,616202f3ca5b3ab47923ee80,691666c81a5eeee631c26019,69166d11fc85576675111018,behavior,flzpmnnlq7.csv,routine,careful,thoughtful,normal,internal,,,,,,,
14132,,"{""Sound"":""normal, average, monotone, blunt, polite""}",survey-text,4,2.1.0,311772,616202f3ca5b3ab47923ee80,691666c81a5eeee631c26019,69166d11fc85576675111018,sound,flzpmnnlq7.csv,normal,average,monotone,blunt,polite,,,,,,,
13453,,"{""Know"":""My significant other and close friend""}",survey-text,5,2.1.0,325231,616202f3ca5b3ab47923ee80,691666c81a5eeee631c26019,69166d11fc85576675111018,know,flzpmnnlq7.csv,My significant other and close friend,,,,,,,,,,,
26929,,"{""Person"":""funny, stubborn, focused, tunnel vision, slow, obsessed, weird""}",survey-text,2,2.1.0,34044,5eb402bed161131f83db9ce4,691666c81a5eeee631c26019,6916705a1fa01afd6dbf4f2d,person,gn07brhzqm.csv,funny,stubborn,focused,tunnel vision,slow,obsessed,weird,,,,,
41172,,"{""Behavior"":""weird, awkward,possessive, nerdy, talkative, no boundaries""}",survey-text,3,2.1.0,75217,5eb402bed161131f83db9ce4,691666c81a5eeee631c26019,6916705a1fa01afd6dbf4f2d,behavior,gn07brhzqm.csv,weird,awkward,possessive,nerdy,talkative,no boundaries,,,,,,
41159,,"{""Sound"":""nerdy sounding, stuttering voice, high pitched, nasally, fast talking""}",survey-text,4,2.1.0,116377,5eb402bed161131f83db9ce4,691666c81a5eeee631c26019,6916705a1fa01afd6dbf4f2d,sound,gn07brhzqm.csv,nerdy sounding,stuttering voice,high pitched,nasally,fast talking,,,,,,,
6147,,"{""Know"":""No""}",survey-text,5,2.1.0,122527,5eb402bed161131f83db9ce4,691666c81a5eeee631c26019,6916705a1fa01afd6dbf4f2d,know,gn07brhzqm.csv,No,,,,,,,,,,,
137430,,"{""Person"":""smart, organized, routine based, needs schedules""}",survey-text,2,2.1.0,145132,607d6ad963c2b4e855ae2a06,691666c81a5eeee631c26019,6916713c8a1d9c66cd3a90dd,person,hyq1kwf5mr.csv,smart,organized,routine based,needs schedules,,,,,,,,
54909,,"{""Behavior"":""just, helpful, special interests based, and rigid""}",survey-text,3,2.1.0,200044,607d6ad963c2b4e855ae2a06,691666c81a5eeee631c26019,6916713c8a1d9c66cd3a90dd,behavior,hyq1kwf5mr.csv,just,helpful,special interests based,and rigid,,,,,,,,
149090,,"{""Sound"":""smart, intelligent, controlled speed, passionate about interests""}",survey-text,4,2.1.0,349141,607d6ad963c2b4e855ae2a06,691666c81a5eeee631c26019,6916713c8a1d9c66cd3a90dd,sound,hyq1kwf5mr.csv,smart,intelligent,controlled speed,passionate about interests,,,,,,,,
6747,,"{""Know"":""yes""}",survey-text,5,2.1.0,355898,607d6ad963c2b4e855ae2a06,691666c81a5eeee631c26019,6916713c8a1d9c66cd3a90dd,know,hyq1kwf5mr.csv,yes,,,,,,,,,,,
60988,,"{""Person"":""brilliant, quiet, reserved, curious, misunderstood""}",survey-text,2,2.1.0,76331,6650a822a7a14d7179997510,691666c81a5eeee631c26019,69166de6a1520e383e790d92,person,j6all99nxh.csv,brilliant,quiet,reserved,curious,misunderstood,,,,,,,
53188,,"{""Behavior"":""calm, hyper, chill, relaxed, excited""}",survey-text,3,2.1.0,129526,6650a822a7a14d7179997510,691666c81a5eeee631c26019,69166de6a1520e383e790d92,behavior,j6all99nxh.csv,calm,hyper,chill,relaxed,excited,,,,,,,
80733,,"{""Sound"":""mumbled, incoherent, childlike, low, loud""}",survey-text,4,2.1.0,210266,6650a822a7a14d7179997510,691666c81a5eeee631c26019,69166de6a1520e383e790d92,sound,j6all99nxh.csv,mumbled,incoherent,childlike,low,loud,,,,,,,
9369,,"{""Know"":""yes""}",survey-text,5,2.1.0,219655,6650a822a7a14d7179997510,691666c81a5eeee631c26019,69166de6a1520e383e790d92,know,j6all99nxh.csv,yes,,,,,,,,,,,
40591,,"{""Person"":""organized, introverted, kind, anxious, no hugs""}",survey-text,2,2.1.0,45659,6266aa7132e3a5bf1631ac1b,691666c81a5eeee631c26019,6916760cbebec0c361f8328f,person,jo4kspp6r0.csv,organized,introverted,kind,anxious,no hugs,,,,,,,
39139,,"{""Behavior"":""anxious, stressed, worried, hyper, angry, happy""}",survey-text,3,2.1.0,84802,6266aa7132e3a5bf1631ac1b,691666c81a5eeee631c26019,6916760cbebec0c361f8328f,behavior,jo4kspp6r0.csv,anxious,stressed,worried,hyper,angry,happy,,,,,,
35826,,"{""Sound"":""loud, no words, speech problems, scared, anxious""}",survey-text,4,2.1.0,120630,6266aa7132e3a5bf1631ac1b,691666c81a5eeee631c26019,6916760cbebec0c361f8328f,sound,jo4kspp6r0.csv,loud,no words,speech problems,scared,anxious,,,,,,,
5296,,"{""Know"":""yes""}",survey-text,5,2.1.0,125931,6266aa7132e3a5bf1631ac1b,691666c81a5eeee631c26019,6916760cbebec0c361f8328f,know,jo4kspp6r0.csv,yes,,,,,,,,,,,
127564,,"{""Person"":""meltdown, sensory overload, routine, nonverbal, repeat""}",survey-text,2,2.1.0,140344,614becce61f2753af92727bb,691666c81a5eeee631c26019,69166c70c93bc54dd3801705,person,k4j9ws1t8b.csv,meltdown,sensory overload,routine,nonverbal,repeat,,,,,,,
60381,,"{""Behavior"":""quiet, honest, focused, overwhelmed, anxious""}",survey-text,3,2.1.0,200733,614becce61f2753af92727bb,691666c81a5eeee631c26019,69166c70c93bc54dd3801705,behavior,k4j9ws1t8b.csv,quiet,honest,focused,overwhelmed,anxious,,,,,,,
60082,,"{""Sound"":""robotic, sings along, loud, direct, repeat""}",survey-text,4,2.1.0,260834,614becce61f2753af92727bb,691666c81a5eeee631c26019,69166c70c93bc54dd3801705,sound,k4j9ws1t8b.csv,robotic,sings along,loud,direct,repeat,,,,,,,
8672,,"{""Know"":""yes""}",survey-text,5,2.1.0,269520,614becce61f2753af92727bb,691666c81a5eeee631c26019,69166c70c93bc54dd3801705,know,k4j9ws1t8b.csv,yes,,,,,,,,,,,
213659,,"{""Person"":""Non verbal, anxious, smart, not very empathetic, awkward, fits, OCD, cleanliness, need space, patterns, structure, schedules""}",survey-text,2,2.1.0,244357,5c580c3dd3cc6b0001d9ffbf,691666c81a5eeee631c26019,69166ead08fab2a811cc3d29,person,k51j5ssq88.csv,Non verbal,anxious,smart,not very empathetic,awkward,fits,OCD,cleanliness,need space,patterns,structure,schedules
55381,,"{""Behavior"":""Fits, outbursts, individualistic, loner, quiet""}",survey-text,3,2.1.0,299764,5c580c3dd3cc6b0001d9ffbf,691666c81a5eeee631c26019,69166ead08fab2a811cc3d29,behavior,k51j5ssq88.csv,Fits,outbursts,individualistic,loner,quiet,,,,,,,
47838,,"{""Sound"":""Awkward, methodical, slow, precise, matter of fact""}",survey-text,4,2.1.0,347607,5c580c3dd3cc6b0001d9ffbf,691666c81a5eeee631c26019,69166ead08fab2a811cc3d29,sound,k51j5ssq88.csv,Awkward,methodical,slow,precise,matter of fact,,,,,,,
6149,,"{""Know"":""Yes""}",survey-text,5,2.1.0,353770,5c580c3dd3cc6b0001d9ffbf,691666c81a5eeee631c26019,69166ead08fab2a811cc3d29,know,k51j5ssq88.csv,Yes,,,,,,,,,,,
65767,,"{""Person"":""Stimulant sensitive, reactionary, focused, varied, misunderstood""}",survey-text,2,2.1.0,78220,678beb4407fe6ae23186cd25,691666c81a5eeee631c26019,69166edbd58f49ea14b75b0d,person,k80u2sfuj3.csv,Stimulant sensitive,reactionary,focused,varied,misunderstood,,,,,,,
29213,,"{""Behavior"":""monotone, literal, isolated, varied, focused""}",survey-text,3,2.1.0,107435,678beb4407fe6ae23186cd25,691666c81a5eeee631c26019,69166edbd58f49ea14b75b0d,behavior,k80u2sfuj3.csv,monotone,literal,isolated,varied,focused,,,,,,,
18453,,"{""Sound"":""monotone, stilted, precise, thorough, silent""}",survey-text,4,2.1.0,125891,678beb4407fe6ae23186cd25,691666c81a5eeee631c26019,69166edbd58f49ea14b75b0d,sound,k80u2sfuj3.csv,monotone,stilted,precise,thorough,silent,,,,,,,
16216,,"{""Know"":""Only online. ""}",survey-text,5,2.1.0,142115,678beb4407fe6ae23186cd25,691666c81a5eeee631c26019,69166edbd58f49ea14b75b0d,know,k80u2sfuj3.csv,Only online. ,,,,,,,,,,,
23953,,"{""Person"":""quiet, strange, focused, noises, sad""}",survey-text,2,2.1.0,29437,5f5452df72345118f58d187b,691666c81a5eeee631c26019,69166d7202d5d4aafc1e7130,person,kmgdz3e2ap.csv,quiet,strange,focused,noises,sad,,,,,,,
67814,,"{""Behavior"":""wire-ry, unpredictable, deep thought, still, jumpy""}",survey-text,3,2.1.0,97253,5f5452df72345118f58d187b,691666c81a5eeee631c26019,69166d7202d5d4aafc1e7130,behavior,kmgdz3e2ap.csv,wire-ry,unpredictable,deep thought,still,jumpy,,,,,,,
51576,,"{""Sound"":""strange noises, grunt, quiet, laughter, moans""}",survey-text,4,2.1.0,148830,5f5452df72345118f58d187b,691666c81a5eeee631c26019,69166d7202d5d4aafc1e7130,sound,kmgdz3e2ap.csv,strange noises,grunt,quiet,laughter,moans,,,,,,,
3539,,"{""Know"":""no""}",survey-text,5,2.1.0,152374,5f5452df72345118f58d187b,691666c81a5eeee631c26019,69166d7202d5d4aafc1e7130,know,kmgdz3e2ap.csv,no,,,,,,,,,,,
66691,,"{""Person"":""savant, special, antisocial, quiet, abnormal, unusual, uncanny""}",survey-text,2,2.1.0,73677,654509bce930185adab23a1a,691666c81a5eeee631c26019,691670896ac43a593c11f2f2,person,kp6w7ow1oh.csv,savant,special,antisocial,quiet,abnormal,unusual,uncanny,,,,,
19610,,"{""Behavior"":""strange, quiet, out of it, not there, odd""}",survey-text,3,2.1.0,93288,654509bce930185adab23a1a,691666c81a5eeee631c26019,691670896ac43a593c11f2f2,behavior,kp6w7ow1oh.csv,strange,quiet,out of it,not there,odd,,,,,,,
18407,,"{""Sound"":""normal, average, not weird, quiet, soft spoken""}",survey-text,4,2.1.0,111690,654509bce930185adab23a1a,691666c81a5eeee631c26019,691670896ac43a593c11f2f2,sound,kp6w7ow1oh.csv,normal,average,not weird,quiet,soft spoken,,,,,,,
15242,,"{""Know"":""i know perfectly normal people who claim to be autistic.""}",survey-text,5,2.1.0,126934,654509bce930185adab23a1a,691666c81a5eeee631c26019,691670896ac43a593c11f2f2,know,kp6w7ow1oh.csv,i know perfectly normal people who claim to be autistic.,,,,,,,,,,,
77358,,"{""Person"":""ticks, skilled, annoying, unfair, needy, isolated, ""}",survey-text,2,2.1.0,100391,64029de99a8a72fc5a205b7e,691666c81a5eeee631c26019,69166e2128992ab6a9779988,person,l26v48e8qk.csv,ticks,skilled,annoying,unfair,needy,isolated,,,,,,
62916,,"{""Behavior"":""timid, shy, aggressive, loud, nervous""}",survey-text,3,2.1.0,163314,64029de99a8a72fc5a205b7e,691666c81a5eeee631c26019,69166e2128992ab6a9779988,behavior,l26v48e8qk.csv,timid,shy,aggressive,loud,nervous,,,,,,,
39085,,"{""Sound"":""loud, fast, slow, choppy,""}",survey-text,4,2.1.0,202401,64029de99a8a72fc5a205b7e,691666c81a5eeee631c26019,69166e2128992ab6a9779988,sound,l26v48e8qk.csv,loud,fast,slow,choppy,,,,,,,,
4916,,"{""Know"":""no""}",survey-text,5,2.1.0,207324,64029de99a8a72fc5a205b7e,691666c81a5eeee631c26019,69166e2128992ab6a9779988,know,l26v48e8qk.csv,no,,,,,,,,,,,
26882,,"{""Person"":""Sensory, delayed, impulsive, confused, loud, silent""}",survey-text,2,2.1.0,53298,55ecd6ff748092000daa9f5f,691666c81a5eeee631c26019,69166e0161e6c26ce38fcc98,person,l35fwgdunk.csv,Sensory,delayed,impulsive,confused,loud,silent,,,,,,
24283,,"{""Behavior"":""outbursts, rocking, groans, repitition, sighs""}",survey-text,3,2.1.0,77584,55ecd6ff748092000daa9f5f,691666c81a5eeee631c26019,69166e0161e6c26ce38fcc98,behavior,l35fwgdunk.csv,outbursts,rocking,groans,repitition,sighs,,,,,,,
23058,,"{""Sound"":""Yelling, outbursts, squeals, moaning, signing""}",survey-text,4,2.1.0,100646,55ecd6ff748092000daa9f5f,691666c81a5eeee631c26019,69166e0161e6c26ce38fcc98,sound,l35fwgdunk.csv,Yelling,outbursts,squeals,moaning,signing,,,,,,,
4571,,"{""Know"":""Yes""}",survey-text,5,2.1.0,105222,55ecd6ff748092000daa9f5f,691666c81a5eeee631c26019,69166e0161e6c26ce38fcc98,know,l35fwgdunk.csv,Yes,,,,,,,,,,,
139247,,"{""Person"":""anti-social, structured, obsessive, fidgety, sensitive, challenged""}",survey-text,2,2.1.0,165004,64509bfcd8d8b7e61f801e95,691666c81a5eeee631c26019,69166d8542bb2218e24f5030,person,l53mlqfa1w.csv,anti-social,structured,obsessive,fidgety,sensitive,challenged,,,,,,
258875,,"{""Behavior"":""Avoidant, obsessive, stimulated, imaginative, sensitive""}",survey-text,3,2.1.0,423889,64509bfcd8d8b7e61f801e95,691666c81a5eeee631c26019,69166d8542bb2218e24f5030,behavior,l53mlqfa1w.csv,Avoidant,obsessive,stimulated,imaginative,sensitive,,,,,,,
152257,,"{""Sound"":""Repetitive, extreme, demanding, fearful, disturbed""}",survey-text,4,2.1.0,576166,64509bfcd8d8b7e61f801e95,691666c81a5eeee631c26019,69166d8542bb2218e24f5030,sound,l53mlqfa1w.csv,Repetitive,extreme,demanding,fearful,disturbed,,,,,,,
55444,,"{""Know"":""Yes.  A few truly very autistic children. I've known a couple older kids and adults who are diagnosed as autism spectrum, but they don't seem like purely autistic. They are more functional.""}",survey-text,5,2.1.0,631653,64509bfcd8d8b7e61f801e95,691666c81a5eeee631c26019,69166d8542bb2218e24f5030,know,l53mlqfa1w.csv,Yes.  A few truly very autistic children. I've known a couple older kids and adults who are diagnosed as autism spectrum,but they don't seem like purely autistic. They are more functional.,,,,,,,,,,
27221,,"{""Person"":""troubled, weird, quiet, tics, strange, separated, alone, disturbed""}",survey-text,2,2.1.0,40467,6429ffe11a9806a9a95ad072,691666c81a5eeee631c26019,691674ae66d8c2edeb8d66b8,person,l6vsbbouhk.csv,troubled,weird,quiet,tics,strange,separated,alone,disturbed,,,,
19639,,"{""Behavior"":""oddly, jerks, spasmodic, unexpectedly, quiet, strange""}",survey-text,3,2.1.0,60108,6429ffe11a9806a9a95ad072,691666c81a5eeee631c26019,691674ae66d8c2edeb8d66b8,behavior,l6vsbbouhk.csv,oddly,jerks,spasmodic,unexpectedly,quiet,strange,,,,,,
23618,,"{""Sound"":""squeaky, guttural, grunt, lowtone, odd""}",survey-text,4,2.1.0,83728,6429ffe11a9806a9a95ad072,691666c81a5eeee631c26019,691674ae66d8c2edeb8d66b8,sound,l6vsbbouhk.csv,squeaky,guttural,grunt,lowtone,odd,,,,,,,
7326,,"{""Know"":""no""}",survey-text,5,2.1.0,91058,6429ffe11a9806a9a95ad072,691666c81a5eeee631c26019,691674ae66d8c2edeb8d66b8,know,l6vsbbouhk.csv,no,,,,,,,,,,,
37401,,"{""Person"":""Simple, expressive, random, emotions, sporadic.""}",survey-text,2,2.1.0,61809,5b4991de56e0140001acb76b,691666c81a5eeee631c26019,69166d8f43556eb4a51fbf3a,person,llkdexf31r.csv,Simple,expressive,random,emotions,sporadic.,,,,,,,
31281,,"{""Behavior"":""Random, spontaneous, energetic, wild, impulsive""}",survey-text,3,2.1.0,93091,5b4991de56e0140001acb76b,691666c81a5eeee631c26019,69166d8f43556eb4a51fbf3a,behavior,llkdexf31r.csv,Random,spontaneous,energetic,wild,impulsive,,,,,,,
51696,,"{""Sound"":""Gibberish, loud, mumbling, aggressive, unintelligible""}",survey-text,4,2.1.0,144790,5b4991de56e0140001acb76b,691666c81a5eeee631c26019,69166d8f43556eb4a51fbf3a,sound,llkdexf31r.csv,Gibberish,loud,mumbling,aggressive,unintelligible,,,,,,,
4425,,"{""Know"":""Yes""}",survey-text,5,2.1.0,149223,5b4991de56e0140001acb76b,691666c81a5eeee631c26019,69166d8f43556eb4a51fbf3a,know,llkdexf31r.csv,Yes,,,,,,,,,,,
62356,,"{""Person"":""Smart, Socially Awkward, Introspective, Different, Patient ""}",survey-text,2,2.1.0,237646,672d053f3563ff089759a66f,691666c81a5eeee631c26019,69166ffc96d9d52b45d79e70,person,lxheck0h59.csv,Smart,Socially Awkward,Introspective,Different,Patient,,,,,,,
41168,,"{""Behavior"":""Inquisitive, Passionate, Lively, Talented, Working""}",survey-text,3,2.1.0,278824,672d053f3563ff089759a66f,691666c81a5eeee631c26019,69166ffc96d9d52b45d79e70,behavior,lxheck0h59.csv,Inquisitive,Passionate,Lively,Talented,Working,,,,,,,
35431,,"{""Sound"":""Smart, Good, Different, Interesting, Caring""}",survey-text,4,2.1.0,314268,672d053f3563ff089759a66f,691666c81a5eeee631c26019,69166ffc96d9d52b45d79e70,sound,lxheck0h59.csv,Smart,Good,Different,Interesting,Caring,,,,,,,
7361,,"{""Know"":""Yes""}",survey-text,5,2.1.0,321662,672d053f3563ff089759a66f,691666c81a5eeee631c26019,69166ffc96d9d52b45d79e70,know,lxheck0h59.csv,Yes,,,,,,,,,,,
101570,,"{""Person"":""Pattern, sensory, anxious, fidgeting, stimming""}",survey-text,2,2.1.0,189440,66bffd8c97a80ac91e1087e0,691666c81a5eeee631c26019,691670650363eeb9d756cb7e,person,mlqlxsrlsz.csv,Pattern,sensory,anxious,fidgeting,stimming,,,,,,,
95468,,"{""Behavior"":""Reserved, overstimulated, withdrawn, notices patterns, repeats routines""}",survey-text,3,2.1.0,284912,66bffd8c97a80ac91e1087e0,691666c81a5eeee631c26019,691670650363eeb9d756cb7e,behavior,mlqlxsrlsz.csv,Reserved,overstimulated,withdrawn,notices patterns,repeats routines,,,,,,,
54862,,"{""Sound"":""Quiet, fast, short, awkward, repetitive""}",survey-text,4,2.1.0,339777,66bffd8c97a80ac91e1087e0,691666c81a5eeee631c26019,691670650363eeb9d756cb7e,sound,mlqlxsrlsz.csv,Quiet,fast,short,awkward,repetitive,,,,,,,
6776,,"{""Know"":""No""}",survey-text,5,2.1.0,346565,66bffd8c97a80ac91e1087e0,691666c81a5eeee631c26019,691670650363eeb9d756cb7e,know,mlqlxsrlsz.csv,No,,,,,,,,,,,
40524,,"{""Person"":""colorful, emotional, outgoing, happy, unique""}",survey-text,2,2.1.0,47460,678006318afafe2d811d0277,691666c81a5eeee631c26019,69166f782ce8d2e96cfdbdd5,person,mwd4a4qnd7.csv,colorful,emotional,outgoing,happy,unique,,,,,,,
33935,,"{""Behavior"":""unique, not to social norms, emotional and usually compassionate, fun and excited, loud ""}",survey-text,3,2.1.0,81396,678006318afafe2d811d0277,691666c81a5eeee631c26019,69166f782ce8d2e96cfdbdd5,behavior,mwd4a4qnd7.csv,unique,not to social norms,emotional and usually compassionate,fun and excited,loud,,,,,,,
21523,,"{""Sound"":""fun, excited, loud, unique, different""}",survey-text,4,2.1.0,102921,678006318afafe2d811d0277,691666c81a5eeee631c26019,69166f782ce8d2e96cfdbdd5,sound,mwd4a4qnd7.csv,fun,excited,loud,unique,different,,,,,,,
3729,,"{""Know"":""yes""}",survey-text,5,2.1.0,106653,678006318afafe2d811d0277,691666c81a5eeee631c26019,69166f782ce8d2e96cfdbdd5,know,mwd4a4qnd7.csv,yes,,,,,,,,,,,
72463,,"{""Person"":""disabled, often very smart, rocking, happy, special""}",survey-text,2,2.1.0,100403,59f38493da08940001d4e599,691666c81a5eeee631c26019,69167cdf15414be50caf3b61,person,n570t5nzh4.csv,disabled,often very smart,rocking,happy,special,,,,,,,
82707,,"{""Behavior"":""rocking, emotional, upsets easily, always on the go, talks loud""}",survey-text,3,2.1.0,183115,59f38493da08940001d4e599,691666c81a5eeee631c26019,69167cdf15414be50caf3b61,behavior,n570t5nzh4.csv,rocking,emotional,upsets easily,always on the go,talks loud,,,,,,,
58090,,"{""Sound"":""childlike, higher pitch voice, shy, ""}",survey-text,4,2.1.0,241209,59f38493da08940001d4e599,691666c81a5eeee631c26019,69167cdf15414be50caf3b61,sound,n570t5nzh4.csv,childlike,higher pitch voice,shy,,,,,,,,,
5660,,"{""Know"":""No""}",survey-text,5,2.1.0,246878,59f38493da08940001d4e599,691666c81a5eeee631c26019,69167cdf15414be50caf3b61,know,n570t5nzh4.csv,No,,,,,,,,,,,
59011,,"{""Person"":""Fussy, rigid, awkward, difficult, misunderstood, picky""}",survey-text,2,2.1.0,81052,5a4bf09053a4560001ba0ebf,691666c81a5eeee631c26019,69166e6843794332c776e3ed,person,n6reyytjs5.csv,Fussy,rigid,awkward,difficult,misunderstood,picky,,,,,,
48693,,"{""Behavior"":""Temperamental, frustrated, fussy, awkward, structured""}",survey-text,3,2.1.0,129748,5a4bf09053a4560001ba0ebf,691666c81a5eeee631c26019,69166e6843794332c776e3ed,behavior,n6reyytjs5.csv,Temperamental,frustrated,fussy,awkward,structured,,,,,,,
34245,,"{""Sound"":""Quiet, stuttering, stiff, stilted, clumsy""}",survey-text,4,2.1.0,163996,5a4bf09053a4560001ba0ebf,691666c81a5eeee631c26019,69166e6843794332c776e3ed,sound,n6reyytjs5.csv,Quiet,stuttering,stiff,stilted,clumsy,,,,,,,
40574,,"{""Know"":""I have a friend who identifies as a high-functioning person with autism.""}",survey-text,5,2.1.0,204587,5a4bf09053a4560001ba0ebf,691666c81a5eeee631c26019,69166e6843794332c776e3ed,know,n6reyytjs5.csv,I have a friend who identifies as a high-functioning person with autism.,,,,,,,,,,,
115947,,"{""Person"":""Kind, smart, sensitive, loving, anxious, perseverant, strong, constant, routine, lonely, longing,    ""}",survey-text,2,2.1.0,141456,663299ea88551960f4132bb7,691666c81a5eeee631c26019,6916779944664248db943b42,person,nece588j4b.csv,Kind,smart,sensitive,loving,anxious,perseverant,strong,constant,routine,lonely,longing,
53106,,"{""Behavior"":""Shy, on alert, friendly, quiet, reserved, ""}",survey-text,3,2.1.0,194568,663299ea88551960f4132bb7,691666c81a5eeee631c26019,6916779944664248db943b42,behavior,nece588j4b.csv,Shy,on alert,friendly,quiet,reserved,,,,,,,
50149,,"{""Sound"":""like a person, loud, quiet, happy, sad, caring""}",survey-text,4,2.1.0,244722,663299ea88551960f4132bb7,691666c81a5eeee631c26019,6916779944664248db943b42,sound,nece588j4b.csv,like a person,loud,quiet,happy,sad,caring,,,,,,
17875,,"{""Know"":""Yes, I know several people who are autistic.  ""}",survey-text,5,2.1.0,262601,663299ea88551960f4132bb7,691666c81a5eeee631c26019,6916779944664248db943b42,know,nece588j4b.csv,Yes,I know several people who are autistic.,,,,,,,,,,
67052,,"{""Person"":""sensitive, repetitive, sensory, antisocial, quiet ""}",survey-text,2,2.1.0,78051,671137bfe81fc6cf620ce313,691666c81a5eeee631c26019,691672265a9c897a18ff7170,person,nnrbn4zo2m.csv,sensitive,repetitive,sensory,antisocial,quiet,,,,,,,
65427,,"{""Behavior"":""Standoffish, odd, peculiar, repetitive behaviors, strange""}",survey-text,3,2.1.0,143484,671137bfe81fc6cf620ce313,691666c81a5eeee631c26019,691672265a9c897a18ff7170,behavior,nnrbn4zo2m.csv,Standoffish,odd,peculiar,repetitive behaviors,strange,,,,,,,
88789,,"{""Sound"":""Quiet, normal, not loud, whispering, mumbling""}",survey-text,4,2.1.0,232277,671137bfe81fc6cf620ce313,691666c81a5eeee631c26019,691672265a9c897a18ff7170,sound,nnrbn4zo2m.csv,Quiet,normal,not loud,whispering,mumbling,,,,,,,
26800,,"{""Know"":""I know one person who is very standoffish and keeps to herself. ""}",survey-text,5,2.1.0,259118,671137bfe81fc6cf620ce313,691666c81a5eeee631c26019,691672265a9c897a18ff7170,know,nnrbn4zo2m.csv,I know one person who is very standoffish and keeps to herself. ,,,,,,,,,,,
36297,,"{""Person"":""focus, honesty, sensory sensitivity, pattern-oriented, thoughtful, direct communication, creativity, routine-oriented, detail-focused, unique perspectives""}",survey-text,2,2.1.0,41483,6655d677ba623bec9e274502,691666c81a5eeee631c26019,6916815166d8c2edeb8d67c5,person,npvln7byyy.csv,focus,honesty,sensory sensitivity,pattern-oriented,thoughtful,direct communication,creativity,routine-oriented,detail-focused,unique perspectives,,
19947,,"{""Behavior"":""direct, focused, routine, steady, sensitive, literal, intense, quiet, repetitive, observant""}",survey-text,3,2.1.0,61432,6655d677ba623bec9e274502,691666c81a5eeee631c26019,6916815166d8c2edeb8d67c5,behavior,npvln7byyy.csv,direct,focused,routine,steady,sensitive,literal,intense,quiet,repetitive,observant,,
15397,,"{""Sound"":""monotone, flat, precise, quiet, loud, scripted, clipped, rapid, slow, rhythmic""}",survey-text,4,2.1.0,76831,6655d677ba623bec9e274502,691666c81a5eeee631c26019,6916815166d8c2edeb8d67c5,sound,npvln7byyy.csv,monotone,flat,precise,quiet,loud,scripted,clipped,rapid,slow,rhythmic,,
4543,,"{""Know"":""No""}",survey-text,5,2.1.0,81381,6655d677ba623bec9e274502,691666c81a5eeee631c26019,6916815166d8c2edeb8d67c5,know,npvln7byyy.csv,No,,,,,,,,,,,
53264,,"{""Person"":""smart, anxious, slower, repetitive, joyous""}",survey-text,2,2.1.0,73034,66d59648d2ae3ed38af9f47b,691666c81a5eeee631c26019,69166df6ea5875ae5e23daee,person,nzp9sohmqb.csv,smart,anxious,slower,repetitive,joyous,,,,,,,
48604,,"{""Behavior"":""happy, meltdowns, awkward, nervous, eager""}",survey-text,3,2.1.0,121641,66d59648d2ae3ed38af9f47b,691666c81a5eeee631c26019,69166df6ea5875ae5e23daee,behavior,nzp9sohmqb.csv,happy,meltdowns,awkward,nervous,eager,,,,,,,
36302,,"{""Sound"":""slower, fast, muffled, unclear, loud""}",survey-text,4,2.1.0,157947,66d59648d2ae3ed38af9f47b,691666c81a5eeee631c26019,69166df6ea5875ae5e23daee,sound,nzp9sohmqb.csv,slower,fast,muffled,unclear,loud,,,,,,,
5843,,"{""Know"":""I do not.""}",survey-text,5,2.1.0,163799,66d59648d2ae3ed38af9f47b,691666c81a5eeee631c26019,69166df6ea5875ae5e23daee,know,nzp9sohmqb.csv,I do not.,,,,,,,,,,,
27648,,"{""Person"":""Extremely gifted in one or more areas.""}",survey-text,2,2.1.0,188699,662abbbd221aa09150316f82,691666c81a5eeee631c26019,69166e7bba4bf69f48061956,person,of51ytb1xq.csv,Extremely gifted in one or more areas.,,,,,,,,,,,
54466,,"{""Behavior"":""Lacking eye contact withdrawn stemming""}",survey-text,3,2.1.0,243200,662abbbd221aa09150316f82,691666c81a5eeee631c26019,69166e7bba4bf69f48061956,behavior,of51ytb1xq.csv,Lacking eye contact withdrawn stemming,,,,,,,,,,,
21598,,"{""Sound"":""Norma, silent, or awkward""}",survey-text,4,2.1.0,264823,662abbbd221aa09150316f82,691666c81a5eeee631c26019,69166e7bba4bf69f48061956,sound,of51ytb1xq.csv,Norma,silent,or awkward,,,,,,,,,
12163,,"{""Know"":""Yes""}",survey-text,5,2.1.0,277016,662abbbd221aa09150316f82,691666c81a5eeee631c26019,69166e7bba4bf69f48061956,know,of51ytb1xq.csv,Yes,,,,,,,,,,,
65060,,"{""Person"":""understanding, introverted, sensory, tactile, sensitivity, spectrum, deep, communications, special""}",survey-text,2,2.1.0,94147,65c0001a211c74f0d87bb8cf,691666c81a5eeee631c26019,69167677722b04ec208d36f6,person,ohnlns7maq.csv,understanding,introverted,sensory,tactile,sensitivity,spectrum,deep,communications,special,,,
42122,,"{""Behavior"":""withdrawn, quiet, distracted, methodical, introverted, focused, ""}",survey-text,3,2.1.0,136271,65c0001a211c74f0d87bb8cf,691666c81a5eeee631c26019,69167677722b04ec208d36f6,behavior,ohnlns7maq.csv,withdrawn,quiet,distracted,methodical,introverted,focused,,,,,,
47914,,"{""Sound"":""talkative, quiet, normal, vocal, whispering, focused""}",survey-text,4,2.1.0,184187,65c0001a211c74f0d87bb8cf,691666c81a5eeee631c26019,69167677722b04ec208d36f6,sound,ohnlns7maq.csv,talkative,quiet,normal,vocal,whispering,focused,,,,,,
3569,,"{""Know"":""yes""}",survey-text,5,2.1.0,187762,65c0001a211c74f0d87bb8cf,691666c81a5eeee631c26019,69167677722b04ec208d36f6,know,ohnlns7maq.csv,yes,,,,,,,,,,,
15024,,"{""Person"":""spectrum, colors, socially awkward, smart, savant""}",survey-text,2,2.1.0,42332,5d9ea13f25b04c0016961421,691666c81a5eeee631c26019,691671b018954a8fecb5a6cd,person,okusbfjb5a.csv,spectrum,colors,socially awkward,smart,savant,,,,,,,
28120,,"{""Behavior"":""awkward, ignores social cues, friendly, enthusiastic, unorthodox""}",survey-text,3,2.1.0,70456,5d9ea13f25b04c0016961421,691666c81a5eeee631c26019,691671b018954a8fecb5a6cd,behavior,okusbfjb5a.csv,awkward,ignores social cues,friendly,enthusiastic,unorthodox,,,,,,,
19002,,"{""Sound"":""loud, outspoken, awkward, weird, friendly""}",survey-text,4,2.1.0,89460,5d9ea13f25b04c0016961421,691666c81a5eeee631c26019,691671b018954a8fecb5a6cd,sound,okusbfjb5a.csv,loud,outspoken,awkward,weird,friendly,,,,,,,
3198,,"{""Know"":""Yes""}",survey-text,5,2.1.0,92664,5d9ea13f25b04c0016961421,691666c81a5eeee631c26019,691671b018954a8fecb5a6cd,know,okusbfjb5a.csv,Yes,,,,,,,,,,,
193489,,"{""Person"":""different,awkward,strong,non-social,dependant""}",survey-text,2,2.1.0,247350,6158cd25533cca75a4429fc9,691666c81a5eeee631c26019,69167870c9edf323aaa0a4a4,person,p00s7kbv1v.csv,different,awkward,strong,non-social,dependant,,,,,,,
498031,,"{""Behavior"":""awkward,focused,aggressive,anxiety,spinning,rocking                                   ""}",survey-text,3,2.1.0,745385,6158cd25533cca75a4429fc9,691666c81a5eeee631c26019,69167870c9edf323aaa0a4a4,behavior,p00s7kbv1v.csv,awkward,focused,aggressive,anxiety,spinning,rocking,,,,,,
279654,,"{""Sound"":""sing-songy,flat-tone,mumbly,robotic""}",survey-text,4,2.1.0,1025043,6158cd25533cca75a4429fc9,691666c81a5eeee631c26019,69167870c9edf323aaa0a4a4,sound,p00s7kbv1v.csv,sing-songy,flat-tone,mumbly,robotic,,,,,,,,
21415,,"{""Know"":""Yes.""}",survey-text,5,2.1.0,1046472,6158cd25533cca75a4429fc9,691666c81a5eeee631c26019,69167870c9edf323aaa0a4a4,know,p00s7kbv1v.csv,Yes.,,,,,,,,,,,
58219,,"{""Person"":""functioning, unique, special, human, smart""}",survey-text,2,2.1.0,62122,6731876be8c419cf04d952b7,691666c81a5eeee631c26019,69166d1a03adabb56a106cb1,person,paopjhuhps.csv,functioning,unique,special,human,smart,,,,,,,
79583,,"{""Behavior"":""different, unique, odd, special, independent""}",survey-text,3,2.1.0,141708,6731876be8c419cf04d952b7,691666c81a5eeee631c26019,69166d1a03adabb56a106cb1,behavior,paopjhuhps.csv,different,unique,odd,special,independent,,,,,,,
32554,,"{""Sound"":""normal, happy, relaxed, chill, giddy""}",survey-text,4,2.1.0,174266,6731876be8c419cf04d952b7,691666c81a5eeee631c26019,69166d1a03adabb56a106cb1,sound,paopjhuhps.csv,normal,happy,relaxed,chill,giddy,,,,,,,
8308,,"{""Know"":""Yes""}",survey-text,5,2.1.0,182583,6731876be8c419cf04d952b7,691666c81a5eeee631c26019,69166d1a03adabb56a106cb1,know,paopjhuhps.csv,Yes,,,,,,,,,,,
51278,,"{""Person"":""Smart, thoughtful, quiet, reserved, weird, alone, thinker, caring""}",survey-text,2,2.1.0,72484,63d84be2c9a21026d442e728,691666c81a5eeee631c26019,69167d7c2fd4877d95695998,person,pd5ptrgdev.csv,Smart,thoughtful,quiet,reserved,weird,alone,thinker,caring,,,,
55748,,"{""Behavior"":""Quiet, focused, observant, honest, thoughtful, creative""}",survey-text,3,2.1.0,128234,63d84be2c9a21026d442e728,691666c81a5eeee631c26019,69167d7c2fd4877d95695998,behavior,pd5ptrgdev.csv,Quiet,focused,observant,honest,thoughtful,creative,,,,,,
23028,,"{""Sound"":""quiet, normal, sad, loud, angry, aggressive, hostile""}",survey-text,4,2.1.0,151264,63d84be2c9a21026d442e728,691666c81a5eeee631c26019,69167d7c2fd4877d95695998,sound,pd5ptrgdev.csv,quiet,normal,sad,loud,angry,aggressive,hostile,,,,,
22523,,"{""Know"":""I have acquaintances with autistic children.""}",survey-text,5,2.1.0,173791,63d84be2c9a21026d442e728,691666c81a5eeee631c26019,69167d7c2fd4877d95695998,know,pd5ptrgdev.csv,I have acquaintances with autistic children.,,,,,,,,,,,
27139,,"{""Person"":""awkward, weird, computer, anime, legos, trains""}",survey-text,2,2.1.0,30859,67439be8ee2236a7c078d523,691666c81a5eeee631c26019,6916712eb9954d7e1839eb83,person,pnpgsl0u1p.csv,awkward,weird,computer,anime,legos,trains,,,,,,
48044,,"{""Behavior"":""weird, embarrassing, withdrawn, quiet, shy""}",survey-text,3,2.1.0,78907,67439be8ee2236a7c078d523,691666c81a5eeee631c26019,6916712eb9954d7e1839eb83,behavior,pnpgsl0u1p.csv,weird,embarrassing,withdrawn,quiet,shy,,,,,,,
36245,,"{""Sound"":""nerdy, geeky, lisping, enthusiastic, frantic""}",survey-text,4,2.1.0,115156,67439be8ee2236a7c078d523,691666c81a5eeee631c26019,6916712eb9954d7e1839eb83,sound,pnpgsl0u1p.csv,nerdy,geeky,lisping,enthusiastic,frantic,,,,,,,
6255,,"{""Know"":""me""}",survey-text,5,2.1.0,121416,67439be8ee2236a7c078d523,691666c81a5eeee631c26019,6916712eb9954d7e1839eb83,know,pnpgsl0u1p.csv,me,,,,,,,,,,,
77940,,"{""Person"":""Slow, retarded, mentally ill, handicapped.""}",survey-text,2,2.1.0,111315,66580aab6c9e170b805a6962,691666c81a5eeee631c26019,69166d2424fe1caaf7c4a466,person,pyer2dq6dt.csv,Slow,retarded,mentally ill,handicapped.,,,,,,,,
68204,,"{""Behavior"":""Retarded, unreasonable, disorderly, disruptive, impatient.""}",survey-text,3,2.1.0,179521,66580aab6c9e170b805a6962,691666c81a5eeee631c26019,69166d2424fe1caaf7c4a466,behavior,pyer2dq6dt.csv,Retarded,unreasonable,disorderly,disruptive,impatient.,,,,,,,
36470,,"{""Sound"":""Retarded, slow, unorganized, incomprehensible, without form.""}",survey-text,4,2.1.0,215993,66580aab6c9e170b805a6962,691666c81a5eeee631c26019,69166d2424fe1caaf7c4a466,sound,pyer2dq6dt.csv,Retarded,slow,unorganized,incomprehensible,without form.,,,,,,,
33551,,"{""Know"":""Yes, I had a multiple family members with it.""}",survey-text,5,2.1.0,249549,66580aab6c9e170b805a6962,691666c81a5eeee631c26019,69166d2424fe1caaf7c4a466,know,pyer2dq6dt.csv,Yes,I had a multiple family members with it.,,,,,,,,,,
45952,,"{""Person"":""slow, smart, quiet, happy, unique""}",survey-text,2,2.1.0,252738,661d91aa5c28076a1170abb6,691666c81a5eeee631c26019,69168237b78d5e10aa76e36a,person,pynha8bxke.csv,slow,smart,quiet,happy,unique,,,,,,,
75522,,"{""Behavior"":""different, dramatic, loud, upset, agressive""}",survey-text,3,2.1.0,328263,661d91aa5c28076a1170abb6,691666c81a5eeee631c26019,69168237b78d5e10aa76e36a,behavior,pynha8bxke.csv,different,dramatic,loud,upset,agressive,,,,,,,
67565,,"{""Sound"":""loud, mute, cries, ""}",survey-text,4,2.1.0,395830,661d91aa5c28076a1170abb6,691666c81a5eeee631c26019,69168237b78d5e10aa76e36a,sound,pynha8bxke.csv,loud,mute,cries,,,,,,,,,
3735,,"{""Know"":""Yes""}",survey-text,5,2.1.0,399572,661d91aa5c28076a1170abb6,691666c81a5eeee631c26019,69168237b78d5e10aa76e36a,know,pynha8bxke.csv,Yes,,,,,,,,,,,
43321,,"{""Person"":""Intelligent, hyper-attentive, talented, sensitive""}",survey-text,2,2.1.0,70227,657dbba8aee3176b18b72b0a,691666c81a5eeee631c26019,6916739914ec262e1f98c3d8,person,q1n6v3tp3j.csv,Intelligent,hyper-attentive,talented,sensitive,,,,,,,,
42330,,"{""Behavior"":""normally (to some onlookers), sensitive to sound, bored, ""}",survey-text,3,2.1.0,112559,657dbba8aee3176b18b72b0a,691666c81a5eeee631c26019,6916739914ec262e1f98c3d8,behavior,q1n6v3tp3j.csv,normally (to some onlookers),sensitive to sound,bored,,,,,,,,,
49994,,"{""Sound"":""normal, human, correct grammar, enthusiastic, bored""}",survey-text,4,2.1.0,162554,657dbba8aee3176b18b72b0a,691666c81a5eeee631c26019,6916739914ec262e1f98c3d8,sound,q1n6v3tp3j.csv,normal,human,correct grammar,enthusiastic,bored,,,,,,,
15035,,"{""Know"":""I have known one artistic person""}",survey-text,5,2.1.0,177595,657dbba8aee3176b18b72b0a,691666c81a5eeee631c26019,6916739914ec262e1f98c3d8,know,q1n6v3tp3j.csv,I have known one artistic person,,,,,,,,,,,
84829,,"{""Person"":""different, smart, capable, pleasant, caring""}",survey-text,2,2.1.0,110161,61521b77189f1ecd957345d7,691666c81a5eeee631c26019,69166d06663f4420ca110eca,person,q71xs47x5x.csv,different,smart,capable,pleasant,caring,,,,,,,
60037,,"{""Behavior"":""differently, normally, willingly, happily, enthusiastically""}",survey-text,3,2.1.0,170202,61521b77189f1ecd957345d7,691666c81a5eeee631c26019,69166d06663f4420ca110eca,behavior,q71xs47x5x.csv,differently,normally,willingly,happily,enthusiastically,,,,,,,
53394,,"{""Sound"":""non-verbal, normal, happy, quiet, loud""}",survey-text,4,2.1.0,223600,61521b77189f1ecd957345d7,691666c81a5eeee631c26019,69166d06663f4420ca110eca,sound,q71xs47x5x.csv,non-verbal,normal,happy,quiet,loud,,,,,,,
9384,,"{""Know"":""Yes.""}",survey-text,5,2.1.0,232993,61521b77189f1ecd957345d7,691666c81a5eeee631c26019,69166d06663f4420ca110eca,know,q71xs47x5x.csv,Yes.,,,,,,,,,,,
50503,,"{""Person"":""detailed, intelligent, emotional, specific, worthy""}",survey-text,2,2.1.0,85329,66ec9f0832d1bc82239af5a1,691666c81a5eeee631c26019,691678ea1aa1f2d77924e9fc,person,qexhyapcly.csv,detailed,intelligent,emotional,specific,worthy,,,,,,,
64763,,"{""Behavior"":""childlike, emotional, extreme, specific, direct""}",survey-text,3,2.1.0,150093,66ec9f0832d1bc82239af5a1,691666c81a5eeee631c26019,691678ea1aa1f2d77924e9fc,behavior,qexhyapcly.csv,childlike,emotional,extreme,specific,direct,,,,,,,
52011,,"{""Sound"":""happy, sad, confident, shy, confused""}",survey-text,4,2.1.0,202105,66ec9f0832d1bc82239af5a1,691666c81a5eeee631c26019,691678ea1aa1f2d77924e9fc,sound,qexhyapcly.csv,happy,sad,confident,shy,confused,,,,,,,
9435,,"{""Know"":""yes""}",survey-text,5,2.1.0,211543,66ec9f0832d1bc82239af5a1,691666c81a5eeee631c26019,691678ea1aa1f2d77924e9fc,know,qexhyapcly.csv,yes,,,,,,,,,,,
89623,,"{""Person"":""quiet, smart, misunderstood , obsessive, stubborn""}",survey-text,2,2.1.0,226253,5cb882d33f0af9000159e00f,691666c81a5eeee631c26019,69167dd0a7e68d3037edbe51,person,qgjhaggxjc.csv,quiet,smart,misunderstood,obsessive,stubborn,,,,,,,
277847,,"{""Behavior"":""tantrums, nervous, literal, focused, curious""}",survey-text,3,2.1.0,504092,5cb882d33f0af9000159e00f,691666c81a5eeee631c26019,69167dd0a7e68d3037edbe51,behavior,qgjhaggxjc.csv,tantrums,nervous,literal,focused,curious,,,,,,,
160980,,"{""Sound"":""monotone, robotic, repetitive, same, boring""}",survey-text,4,2.1.0,665069,5cb882d33f0af9000159e00f,691666c81a5eeee631c26019,69167dd0a7e68d3037edbe51,sound,qgjhaggxjc.csv,monotone,robotic,repetitive,same,boring,,,,,,,
4714,,"{""Know"":""yes""}",survey-text,5,2.1.0,669785,5cb882d33f0af9000159e00f,691666c81a5eeee631c26019,69167dd0a7e68d3037edbe51,know,qgjhaggxjc.csv,yes,,,,,,,,,,,
32056,,"{""Person"":""neurodivergent, special interest, awkward, no eye contact,  doesn't like loud noises or bright lights ""}",survey-text,2,2.1.0,44225,6757c7df61a1989317e6c428,691666c81a5eeee631c26019,69166d02d5149aa77f2e23bc,person,qnfqnydf7s.csv,neurodivergent,special interest,awkward,no eye contact,doesn't like loud noises or bright lights,,,,,,,
29385,,"{""Behavior"":""doesn't like loud noise or lights, stimming, fidgeting, blunt, abrupt""}",survey-text,3,2.1.0,73612,6757c7df61a1989317e6c428,691666c81a5eeee631c26019,69166d02d5149aa77f2e23bc,behavior,qnfqnydf7s.csv,doesn't like loud noise or lights,stimming,fidgeting,blunt,abrupt,,,,,,,
21627,,"{""Sound"":""monotone, not excited, repetitive""}",survey-text,4,2.1.0,95242,6757c7df61a1989317e6c428,691666c81a5eeee631c26019,69166d02d5149aa77f2e23bc,sound,qnfqnydf7s.csv,monotone,not excited,repetitive,,,,,,,,,
2741,,"{""Know"":""yes""}",survey-text,5,2.1.0,97985,6757c7df61a1989317e6c428,691666c81a5eeee631c26019,69166d02d5149aa77f2e23bc,know,qnfqnydf7s.csv,yes,,,,,,,,,,,
63456,,"{""Person"":""someone who is on the spectrum.  Who has trouble with contact with people, who doesn't know how to sense clues from people or know how to relate to them. ""}",survey-text,2,2.1.0,102201,62897d2024f826ea90b7efa1,691666c81a5eeee631c26019,69166ee9398afde1290329d8,person,qox8knmfbt.csv,someone who is on the spectrum.  Who has trouble with contact with people,who doesn't know how to sense clues from people or know how to relate to them.,,,,,,,,,,
61009,,"{""Behavior"":""withdrawn, quiet, odd, unintentionally rude, sometimes physically violent when frustrated.""}",survey-text,3,2.1.0,163212,62897d2024f826ea90b7efa1,691666c81a5eeee631c26019,69166ee9398afde1290329d8,behavior,qox8knmfbt.csv,withdrawn,quiet,odd,unintentionally rude,sometimes physically violent when frustrated.,,,,,,,
46527,,"{""Sound"":""quiet, speaks oddly, does not speak at all, says inappropriate things.""}",survey-text,4,2.1.0,209741,62897d2024f826ea90b7efa1,691666c81a5eeee631c26019,69166ee9398afde1290329d8,sound,qox8knmfbt.csv,quiet,speaks oddly,does not speak at all,says inappropriate things.,,,,,,,,
5845,,"{""Know"":""yes""}",survey-text,5,2.1.0,215590,62897d2024f826ea90b7efa1,691666c81a5eeee631c26019,69166ee9398afde1290329d8,know,qox8knmfbt.csv,yes,,,,,,,,,,,
38049,,"{""Person"":""unique, different, able, divergent, confused, literal""}",survey-text,2,2.1.0,46754,5f4738bfa043201203a27b4b,691666c81a5eeee631c26019,69166e7a7a4efeab141a8a81,person,r7b8yrnoa7.csv,unique,different,able,divergent,confused,literal,,,,,,
21724,,"{""Behavior"":""abnormal, confused, quiet, loud, selfish""}",survey-text,3,2.1.0,68483,5f4738bfa043201203a27b4b,691666c81a5eeee631c26019,69166e7a7a4efeab141a8a81,behavior,r7b8yrnoa7.csv,abnormal,confused,quiet,loud,selfish,,,,,,,
47017,,"{""Sound"":""loud, flat, monotone, raspy, intelligent""}",survey-text,4,2.1.0,115504,5f4738bfa043201203a27b4b,691666c81a5eeee631c26019,69166e7a7a4efeab141a8a81,sound,r7b8yrnoa7.csv,loud,flat,monotone,raspy,intelligent,,,,,,,
3025,,"{""Know"":""No""}",survey-text,5,2.1.0,118534,5f4738bfa043201203a27b4b,691666c81a5eeee631c26019,69166e7a7a4efeab141a8a81,know,r7b8yrnoa7.csv,No,,,,,,,,,,,
52916,,"{""Person"":""behaviors, routine, specific, unpredictable, children""}",survey-text,2,2.1.0,64274,61086c714ebfaefbb62531b2,691666c81a5eeee631c26019,69166cbe58f9f60df52d6892,person,royw6lk5zu.csv,behaviors,routine,specific,unpredictable,children,,,,,,,
175758,,"{""Behavior"":""upset, happy, kind, angry, shy""}",survey-text,3,2.1.0,240033,61086c714ebfaefbb62531b2,691666c81a5eeee631c26019,69166cbe58f9f60df52d6892,behavior,royw6lk5zu.csv,upset,happy,kind,angry,shy,,,,,,,
48141,,"{""Sound"":""loud, quiet, soft tone, forceful, harsh""}",survey-text,4,2.1.0,288176,61086c714ebfaefbb62531b2,691666c81a5eeee631c26019,69166cbe58f9f60df52d6892,sound,royw6lk5zu.csv,loud,quiet,soft tone,forceful,harsh,,,,,,,
14161,,"{""Know"":""Yes, family member""}",survey-text,5,2.1.0,302352,61086c714ebfaefbb62531b2,691666c81a5eeee631c26019,69166cbe58f9f60df52d6892,know,royw6lk5zu.csv,Yes,family member,,,,,,,,,,
66202,,"{""Person"":""non verbal, sensitive, over stimulated, social anxiety, routine oriented""}",survey-text,2,2.1.0,93907,5c6b646349b7f0000120b659,691666c81a5eeee631c26019,691673bc9dcd62f6bb827184,person,ruy16jd2vz.csv,non verbal,sensitive,over stimulated,social anxiety,routine oriented,,,,,,,
63454,,"{""Behavior"":""quiet, inflexible, routine oriented, non verbal, socially awkward""}",survey-text,3,2.1.0,157379,5c6b646349b7f0000120b659,691666c81a5eeee631c26019,691673bc9dcd62f6bb827184,behavior,ruy16jd2vz.csv,quiet,inflexible,routine oriented,non verbal,socially awkward,,,,,,,
48520,,"{""Sound"":""quiet, precise, accurate, literal, inflexible ""}",survey-text,4,2.1.0,205914,5c6b646349b7f0000120b659,691666c81a5eeee631c26019,691673bc9dcd62f6bb827184,sound,ruy16jd2vz.csv,quiet,precise,accurate,literal,inflexible,,,,,,,
12034,,"{""Know"":""yes""}",survey-text,5,2.1.0,217967,5c6b646349b7f0000120b659,691666c81a5eeee631c26019,691673bc9dcd62f6bb827184,know,ruy16jd2vz.csv,yes,,,,,,,,,,,
53227,,"{""Person"":""awkward, different, needs, special, human, condition, weird, strange, altruistic, lovely""}",survey-text,2,2.1.0,68701,5c9623dd35599200175642e4,691666c81a5eeee631c26019,691673382e78efbba224fb70,person,sapky9x31f.csv,awkward,different,needs,special,human,condition,weird,strange,altruistic,lovely,,
24434,,"{""Behavior"":""Awkward, weird, strange, different, awesome""}",survey-text,3,2.1.0,93140,5c9623dd35599200175642e4,691666c81a5eeee631c26019,691673382e78efbba224fb70,behavior,sapky9x31f.csv,Awkward,weird,strange,different,awesome,,,,,,,
27034,,"{""Sound"":""normal, different, strange, awkward, fun""}",survey-text,4,2.1.0,120177,5c9623dd35599200175642e4,691666c81a5eeee631c26019,691673382e78efbba224fb70,sound,sapky9x31f.csv,normal,different,strange,awkward,fun,,,,,,,
4446,,"{""Know"":""No""}",survey-text,5,2.1.0,124630,5c9623dd35599200175642e4,691666c81a5eeee631c26019,691673382e78efbba224fb70,know,sapky9x31f.csv,No,,,,,,,,,,,
63660,,"{""Person"":""Literal, awkward, intense, rigid, brilliant, anxious, blunt, isolated, focused, misunderstood""}",survey-text,2,2.1.0,87101,5fed6c9c0d786daf31f29f3d,691666c81a5eeee631c26019,6916a5d7fa9a8508db064956,person,sjltrm5r2r.csv,Literal,awkward,intense,rigid,brilliant,anxious,blunt,isolated,focused,misunderstood,,
27465,,"{""Behavior"":""Routine-seeking, direct, repetitive, withdrawn, intense, sensitive""}",survey-text,3,2.1.0,114578,5fed6c9c0d786daf31f29f3d,691666c81a5eeee631c26019,6916a5d7fa9a8508db064956,behavior,sjltrm5r2r.csv,Routine-seeking,direct,repetitive,withdrawn,intense,sensitive,,,,,,
47149,,"{""Sound"":""Monotone, precise, quiet, loud, hesitant, fast, flat, repetitive""}",survey-text,4,2.1.0,161738,5fed6c9c0d786daf31f29f3d,691666c81a5eeee631c26019,6916a5d7fa9a8508db064956,sound,sjltrm5r2r.csv,Monotone,precise,quiet,loud,hesitant,fast,flat,repetitive,,,,
17574,,"{""Know"":""Yes, my friend has an autistic son, non verbal. ""}",survey-text,5,2.1.0,179324,5fed6c9c0d786daf31f29f3d,691666c81a5eeee631c26019,6916a5d7fa9a8508db064956,know,sjltrm5r2r.csv,Yes,my friend has an autistic son,non verbal.,,,,,,,,,
102065,,"{""Person"":""isolated, challenged, disabled,  obsessive, neurotic""}",survey-text,2,2.1.0,130161,665e680164927b18554b66ec,691666c81a5eeee631c26019,6916736348717bc78568729e,person,u0l4m7kz2s.csv,isolated,challenged,disabled,obsessive,neurotic,,,,,,,
70478,,"{""Behavior"":""obsessive, compulsive, non-social, shy, picky""}",survey-text,3,2.1.0,200641,665e680164927b18554b66ec,691666c81a5eeee631c26019,6916736348717bc78568729e,behavior,u0l4m7kz2s.csv,obsessive,compulsive,non-social,shy,picky,,,,,,,
74405,,"{""Sound"":""mumbling, excited, confused, strange, unnatural""}",survey-text,4,2.1.0,275048,665e680164927b18554b66ec,691666c81a5eeee631c26019,6916736348717bc78568729e,sound,u0l4m7kz2s.csv,mumbling,excited,confused,strange,unnatural,,,,,,,
10979,,"{""Know"":""No.""}",survey-text,5,2.1.0,286048,665e680164927b18554b66ec,691666c81a5eeee631c26019,6916736348717bc78568729e,know,u0l4m7kz2s.csv,No.,,,,,,,,,,,
35163,,"{""Person"":""different, neurodivergent, sensitive, distracted, quirky, obsessive, awkward""}",survey-text,2,2.1.0,44036,590208c89571f50001c666e3,691666c81a5eeee631c26019,69166f8287e1f9ec76f990e1,person,u1edxhomk0.csv,different,neurodivergent,sensitive,distracted,quirky,obsessive,awkward,,,,,
39239,,"{""Behavior"":""strange, eccentric, focused, disinterested, self-centered""}",survey-text,3,2.1.0,83278,590208c89571f50001c666e3,691666c81a5eeee631c26019,69166f8287e1f9ec76f990e1,behavior,u1edxhomk0.csv,strange,eccentric,focused,disinterested,self-centered,,,,,,,
28357,,"{""Sound"":""ordinary, loud, boisterous, sad, energetic""}",survey-text,4,2.1.0,111638,590208c89571f50001c666e3,691666c81a5eeee631c26019,69166f8287e1f9ec76f990e1,sound,u1edxhomk0.csv,ordinary,loud,boisterous,sad,energetic,,,,,,,
6855,,"{""Know"":""no""}",survey-text,5,2.1.0,118499,590208c89571f50001c666e3,691666c81a5eeee631c26019,69166f8287e1f9ec76f990e1,know,u1edxhomk0.csv,no,,,,,,,,,,,
41309,,"{""Person"":""unique, intelligent, spunky, routine, kind""}",survey-text,2,2.1.0,60116,60862c73a90fb86ef3e4a1f4,691666c81a5eeee631c26019,69166fdbe2681348670aa2e0,person,u3qh51ckx8.csv,unique,intelligent,spunky,routine,kind,,,,,,,
37893,,"{""Behavior"":""loud, quiet, calm, sporatic, interesting""}",survey-text,3,2.1.0,98011,60862c73a90fb86ef3e4a1f4,691666c81a5eeee631c26019,69166fdbe2681348670aa2e0,behavior,u3qh51ckx8.csv,loud,quiet,calm,sporatic,interesting,,,,,,,
113144,,"{""Sound"":""loud, vocal, quiet, repetitive, energetic ""}",survey-text,4,2.1.0,211158,60862c73a90fb86ef3e4a1f4,691666c81a5eeee631c26019,69166fdbe2681348670aa2e0,sound,u3qh51ckx8.csv,loud,vocal,quiet,repetitive,energetic,,,,,,,
3503,,"{""Know"":""yes""}",survey-text,5,2.1.0,214666,60862c73a90fb86ef3e4a1f4,691666c81a5eeee631c26019,69166fdbe2681348670aa2e0,know,u3qh51ckx8.csv,yes,,,,,,,,,,,
44581,,"{""Person"":""Withdrawn, handicapped, Mute, antisocial, special needs""}",survey-text,2,2.1.0,63790,55b5f6b6fdf99b713277dc94,691666c81a5eeee631c26019,69166d1e13f764aecccf32de,person,u67r7lq0so.csv,Withdrawn,handicapped,Mute,antisocial,special needs,,,,,,,
40994,,"{""Behavior"":""withdrawn, mute, awkward, helpless, disoriented""}",survey-text,3,2.1.0,104786,55b5f6b6fdf99b713277dc94,691666c81a5eeee631c26019,69166d1e13f764aecccf32de,behavior,u67r7lq0so.csv,withdrawn,mute,awkward,helpless,disoriented,,,,,,,
30983,,"{""Sound"":""loud, garbled, odd, confused, frustrated""}",survey-text,4,2.1.0,135770,55b5f6b6fdf99b713277dc94,691666c81a5eeee631c26019,69166d1e13f764aecccf32de,sound,u67r7lq0so.csv,loud,garbled,odd,confused,frustrated,,,,,,,
6368,,"{""Know"":""yes""}",survey-text,5,2.1.0,142144,55b5f6b6fdf99b713277dc94,691666c81a5eeee631c26019,69166d1e13f764aecccf32de,know,u67r7lq0so.csv,yes,,,,,,,,,,,
16190,,"{""Person"":""annoying, quiet, oblivious, focused, obsessive""}",survey-text,2,2.1.0,29285,60d3740f31606cb50e49f00c,691666c81a5eeee631c26019,69166d79359e7fd809edbcfa,person,upv8z56mec.csv,annoying,quiet,oblivious,focused,obsessive,,,,,,,
26658,,"{""Behavior"":""quiet, loud, unrestrained, focused, deliberate""}",survey-text,3,2.1.0,55960,60d3740f31606cb50e49f00c,691666c81a5eeee631c26019,69166d79359e7fd809edbcfa,behavior,upv8z56mec.csv,quiet,loud,unrestrained,focused,deliberate,,,,,,,
86350,,"{""Sound"":""blunt, loud, obtrusive, quick, fast""}",survey-text,4,2.1.0,142322,60d3740f31606cb50e49f00c,691666c81a5eeee631c26019,69166d79359e7fd809edbcfa,sound,upv8z56mec.csv,blunt,loud,obtrusive,quick,fast,,,,,,,
3734,,"{""Know"":""yes""}",survey-text,5,2.1.0,146088,60d3740f31606cb50e49f00c,691666c81a5eeee631c26019,69166d79359e7fd809edbcfa,know,upv8z56mec.csv,yes,,,,,,,,,,,
148649,,"{""Person"":""Unique, Special, Disability, Diverse, Spectrum, Brain, Individual, Challenging, Intrigue, Misunderstood""}",survey-text,2,2.1.0,168919,5dd72d2883e3096d755c0f14,691666c81a5eeee631c26019,69166d8d1992543696041eeb,person,v19p2nofh7.csv,Unique,Special,Disability,Diverse,Spectrum,Brain,Individual,Challenging,Intrigue,Misunderstood,,
77548,,"{""Behavior"":""Different, Unpredictable, Introspective, Distant, Uncommon, Unique""}",survey-text,3,2.1.0,246477,5dd72d2883e3096d755c0f14,691666c81a5eeee631c26019,69166d8d1992543696041eeb,behavior,v19p2nofh7.csv,Different,Unpredictable,Introspective,Distant,Uncommon,Unique,,,,,,
78643,,"{""Sound"":""Normal, Quiet, Loud, Confusing, Unintelligible, Smart""}",survey-text,4,2.1.0,325129,5dd72d2883e3096d755c0f14,691666c81a5eeee631c26019,69166d8d1992543696041eeb,sound,v19p2nofh7.csv,Normal,Quiet,Loud,Confusing,Unintelligible,Smart,,,,,,
5825,,"{""Know"":""Yes""}",survey-text,5,2.1.0,330963,5dd72d2883e3096d755c0f14,691666c81a5eeee631c26019,69166d8d1992543696041eeb,know,v19p2nofh7.csv,Yes,,,,,,,,,,,
89382,,"{""Person"":""Cool, Savant, Smart, Misunderstood, quirky, authentic, masking""}",survey-text,2,2.1.0,434921,60fd0b053216a04db035ad9b,691666c81a5eeee631c26019,69167758b8fa485bbdee041c,person,v8l6uw2smn.csv,Cool,Savant,Smart,Misunderstood,quirky,authentic,masking,,,,,
119591,,"{""Behavior"":""Stimming, fidget, spectrum, dancing, hugging""}",survey-text,3,2.1.0,554518,60fd0b053216a04db035ad9b,691666c81a5eeee631c26019,69167758b8fa485bbdee041c,behavior,v8l6uw2smn.csv,Stimming,fidget,spectrum,dancing,hugging,,,,,,,
428351,,"{""Sound"":""Singing, ticks, lisp, vocal, laughing""}",survey-text,4,2.1.0,982876,60fd0b053216a04db035ad9b,691666c81a5eeee631c26019,69167758b8fa485bbdee041c,sound,v8l6uw2smn.csv,Singing,ticks,lisp,vocal,laughing,,,,,,,
10089,,"{""Know"":""Yes I know many autistic people.""}",survey-text,5,2.1.0,992977,60fd0b053216a04db035ad9b,691666c81a5eeee631c26019,69167758b8fa485bbdee041c,know,v8l6uw2smn.csv,Yes I know many autistic people.,,,,,,,,,,,
